"STUDYID","DOMAIN","USUBJID","LBSEQ","LBTESTCD","LBTEST","LBCAT","LBORRES","LBORRESU","LBORNRLO","LBORNRHI","LBSTRESC","LBSTRESN","LBSTRESU","LBSTNRLO","LBSTNRHI","LBNRIND","LBBLFL","VISITNUM","VISIT","VISITDY","EPOCH","LBDTC","LBDY"
"CDISCPILOT01","LB","01-701-1015",13,"COLOR","Color","URINALYSIS","N","","","","N",0,"",0,0,"NORMAL","Y",1,"SCREENING 1",-7,"SCREENING","2013-12-26T14:45",-7
"CDISCPILOT01","LB","01-701-1015",50,"COLOR","Color","URINALYSIS","N","","","","N",0,"",0,0,"NORMAL","",4,"WEEK 2",14,"TREATMENT","2014-01-16T13:17",15
"CDISCPILOT01","LB","01-701-1015",175,"COLOR","Color","URINALYSIS","N","","","","N",0,"",0,0,"NORMAL","",9,"WEEK 12",84,"TREATMENT","2014-03-26T15:15",84
"CDISCPILOT01","LB","01-701-1015",270,"COLOR","Color","URINALYSIS","N","","","","N",0,"",0,0,"NORMAL","",12,"WEEK 24",168,"TREATMENT","2014-06-18T13:00",168
"CDISCPILOT01","LB","01-701-1015",21,"KETONES","Ketones","URINALYSIS","0","","","","0",0,"",0,0,"NORMAL","Y",1,"SCREENING 1",-7,"SCREENING","2013-12-26T14:45",-7
"CDISCPILOT01","LB","01-701-1015",58,"KETONES","Ketones","URINALYSIS","0","","","","0",0,"",0,0,"NORMAL","",4,"WEEK 2",14,"TREATMENT","2014-01-16T13:17",15
"CDISCPILOT01","LB","01-701-1015",183,"KETONES","Ketones","URINALYSIS","0","","","","0",0,"",0,0,"NORMAL","",9,"WEEK 12",84,"TREATMENT","2014-03-26T15:15",84
"CDISCPILOT01","LB","01-701-1015",278,"KETONES","Ketones","URINALYSIS","0","","","","0",0,"",0,0,"NORMAL","",12,"WEEK 24",168,"TREATMENT","2014-06-18T13:00",168
"CDISCPILOT01","LB","01-701-1015",28,"PH","pH","URINALYSIS","5.0","","5","8","5",5,"",5,8,"NORMAL","Y",1,"SCREENING 1",-7,"SCREENING","2013-12-26T14:45",-7
"CDISCPILOT01","LB","01-701-1015",65,"PH","pH","URINALYSIS","5.0","","5","8","5",5,"",5,8,"NORMAL","",4,"WEEK 2",14,"TREATMENT","2014-01-16T13:17",15
"CDISCPILOT01","LB","01-701-1015",190,"PH","pH","URINALYSIS","5.0","","5","8","5",5,"",5,8,"NORMAL","",9,"WEEK 12",84,"TREATMENT","2014-03-26T15:15",84
"CDISCPILOT01","LB","01-701-1015",285,"PH","pH","URINALYSIS","5.0","","5","8","5",5,"",5,8,"NORMAL","",12,"WEEK 24",168,"TREATMENT","2014-06-18T13:00",168
"CDISCPILOT01","LB","01-701-1015",33,"SPGRAV","Specific Gravity","URINALYSIS","1.013","","1.006","1.03","1.013",1.013,"",1.006,1.03,"NORMAL","Y",1,"SCREENING 1",-7,"SCREENING","2013-12-26T14:45",-7
"CDISCPILOT01","LB","01-701-1015",70,"SPGRAV","Specific Gravity","URINALYSIS","1.007","","1.006","1.03","1.007",1.007,"",1.006,1.03,"NORMAL","",4,"WEEK 2",14,"TREATMENT","2014-01-16T13:17",15
"CDISCPILOT01","LB","01-701-1015",195,"SPGRAV","Specific Gravity","URINALYSIS","1.011","","1.006","1.03","1.011",1.011,"",1.006,1.03,"NORMAL","",9,"WEEK 12",84,"TREATMENT","2014-03-26T15:15",84
"CDISCPILOT01","LB","01-701-1015",290,"SPGRAV","Specific Gravity","URINALYSIS","1.005","","1.006","1.03","1.005",1.005,"",1.006,1.03,"LOW","",12,"WEEK 24",168,"TREATMENT","2014-06-18T13:00",168
"CDISCPILOT01","LB","01-701-1015",34,"TSH","Thyrotropin","OTHER","1.68","mIU/L","0.32","5","1.68",1.68,"mU/L",0.32,5,"NORMAL","Y",1,"SCREENING 1",-7,"SCREENING","2013-12-26T14:45",-7
"CDISCPILOT01","LB","01-701-1015",36,"UROBIL","Urobilinogen","URINALYSIS","0","","","","0",0,"",0,0,"NORMAL","Y",1,"SCREENING 1",-7,"SCREENING","2013-12-26T14:45",-7
"CDISCPILOT01","LB","01-701-1015",72,"UROBIL","Urobilinogen","URINALYSIS","0","","","","0",0,"",0,0,"NORMAL","",4,"WEEK 2",14,"TREATMENT","2014-01-16T13:17",15
"CDISCPILOT01","LB","01-701-1015",197,"UROBIL","Urobilinogen","URINALYSIS","0","","","","0",0,"",0,0,"NORMAL","",9,"WEEK 12",84,"TREATMENT","2014-03-26T15:15",84
"CDISCPILOT01","LB","01-701-1015",292,"UROBIL","Urobilinogen","URINALYSIS","0","","","","0",0,"",0,0,"NORMAL","",12,"WEEK 24",168,"TREATMENT","2014-06-18T13:00",168
"CDISCPILOT01","LB","01-701-1015",37,"VITB12","Vitamin B12","OTHER","399","ng/L","200","900","294.3822",294.3822,"pmol/L",148,664,"NORMAL","Y",1,"SCREENING 1",-7,"SCREENING","2013-12-26T14:45",-7
"CDISCPILOT01","LB","01-701-1023",12,"COLOR","Color","URINALYSIS","N","","","","N",0,"",0,0,"NORMAL","Y",1,"SCREENING 1",-7,"SCREENING","2012-07-22T12:13",-14
"CDISCPILOT01","LB","01-701-1023",49,"COLOR","Color","URINALYSIS","N","","","","N",0,"",0,0,"NORMAL","",4,"WEEK 2",14,"TREATMENT","2012-08-27T15:47",23
"CDISCPILOT01","LB","01-701-1023",84,"COLOR","Color","URINALYSIS","N","","","","N",0,"",0,0,"NORMAL","",5,"WEEK 4",28,"TREATMENT","2012-09-02T10:15",29
"CDISCPILOT01","LB","01-701-1023",20,"KETONES","Ketones","URINALYSIS","0","","","","0",0,"",0,0,"NORMAL","Y",1,"SCREENING 1",-7,"SCREENING","2012-07-22T12:13",-14
"CDISCPILOT01","LB","01-701-1023",57,"KETONES","Ketones","URINALYSIS","0","","","","0",0,"",0,0,"NORMAL","",4,"WEEK 2",14,"TREATMENT","2012-08-27T15:47",23
"CDISCPILOT01","LB","01-701-1023",92,"KETONES","Ketones","URINALYSIS","0","","","","0",0,"",0,0,"NORMAL","",5,"WEEK 4",28,"TREATMENT","2012-09-02T10:15",29
"CDISCPILOT01","LB","01-701-1023",27,"PH","pH","URINALYSIS","5.0","","5","8","5",5,"",5,8,"NORMAL","Y",1,"SCREENING 1",-7,"SCREENING","2012-07-22T12:13",-14
"CDISCPILOT01","LB","01-701-1023",64,"PH","pH","URINALYSIS","5.0","","5","8","5",5,"",5,8,"NORMAL","",4,"WEEK 2",14,"TREATMENT","2012-08-27T15:47",23
"CDISCPILOT01","LB","01-701-1023",99,"PH","pH","URINALYSIS","5.0","","5","8","5",5,"",5,8,"NORMAL","",5,"WEEK 4",28,"TREATMENT","2012-09-02T10:15",29
"CDISCPILOT01","LB","01-701-1023",32,"SPGRAV","Specific Gravity","URINALYSIS","1.016","","1.006","1.03","1.016",1.016,"",1.006,1.03,"NORMAL","Y",1,"SCREENING 1",-7,"SCREENING","2012-07-22T12:13",-14
"CDISCPILOT01","LB","01-701-1023",69,"SPGRAV","Specific Gravity","URINALYSIS","1.026","","1.006","1.03","1.026",1.026,"",1.006,1.03,"NORMAL","",4,"WEEK 2",14,"TREATMENT","2012-08-27T15:47",23
"CDISCPILOT01","LB","01-701-1023",104,"SPGRAV","Specific Gravity","URINALYSIS","1.016","","1.006","1.03","1.016",1.016,"",1.006,1.03,"NORMAL","",5,"WEEK 4",28,"TREATMENT","2012-09-02T10:15",29
"CDISCPILOT01","LB","01-701-1023",33,"TSH","Thyrotropin","OTHER","1.28","mIU/L","0.32","5","1.28",1.28,"mU/L",0.32,5,"NORMAL","Y",1,"SCREENING 1",-7,"SCREENING","2012-07-22T12:13",-14
"CDISCPILOT01","LB","01-701-1023",35,"UROBIL","Urobilinogen","URINALYSIS","0","","","","0",0,"",0,0,"NORMAL","Y",1,"SCREENING 1",-7,"SCREENING","2012-07-22T12:13",-14
"CDISCPILOT01","LB","01-701-1023",71,"UROBIL","Urobilinogen","URINALYSIS","0","","","","0",0,"",0,0,"NORMAL","",4,"WEEK 2",14,"TREATMENT","2012-08-27T15:47",23
"CDISCPILOT01","LB","01-701-1023",106,"UROBIL","Urobilinogen","URINALYSIS","0","","","","0",0,"",0,0,"NORMAL","",5,"WEEK 4",28,"TREATMENT","2012-09-02T10:15",29
"CDISCPILOT01","LB","01-701-1023",36,"VITB12","Vitamin B12","OTHER","553","ng/L","200","900","408.0034",408.0034,"pmol/L",148,664,"NORMAL","Y",1,"SCREENING 1",-7,"SCREENING","2012-07-22T12:13",-14
"CDISCPILOT01","LB","01-701-1028",12,"COLOR","Color","URINALYSIS","N","","","","N",0,"",0,0,"NORMAL","Y",1,"SCREENING 1",-7,"SCREENING","2013-07-11T12:02",-8
"CDISCPILOT01","LB","01-701-1028",49,"COLOR","Color","URINALYSIS","N","","","","N",0,"",0,0,"NORMAL","",4,"WEEK 2",14,"TREATMENT","2013-08-01T09:15",14
"CDISCPILOT01","LB","01-701-1028",174,"COLOR","Color","URINALYSIS","N","","","","N",0,"",0,0,"NORMAL","",9,"WEEK 12",84,"TREATMENT","2013-10-09T08:42",83
"CDISCPILOT01","LB","01-701-1028",272,"COLOR","Color","URINALYSIS","N","","","","N",0,"",0,0,"NORMAL","",12,"WEEK 24",168,"TREATMENT","2014-01-06T10:00",172
"CDISCPILOT01","LB","01-701-1028",20,"KETONES","Ketones","URINALYSIS","0","","","","0",0,"",0,0,"NORMAL","Y",1,"SCREENING 1",-7,"SCREENING","2013-07-11T12:02",-8
"CDISCPILOT01","LB","01-701-1028",57,"KETONES","Ketones","URINALYSIS","0","","","","0",0,"",0,0,"NORMAL","",4,"WEEK 2",14,"TREATMENT","2013-08-01T09:15",14
"CDISCPILOT01","LB","01-701-1028",182,"KETONES","Ketones","URINALYSIS","0","","","","0",0,"",0,0,"NORMAL","",9,"WEEK 12",84,"TREATMENT","2013-10-09T08:42",83
"CDISCPILOT01","LB","01-701-1028",280,"KETONES","Ketones","URINALYSIS","0","","","","0",0,"",0,0,"NORMAL","",12,"WEEK 24",168,"TREATMENT","2014-01-06T10:00",172
"CDISCPILOT01","LB","01-701-1028",27,"PH","pH","URINALYSIS","5.0","","5","8","5",5,"",5,8,"NORMAL","Y",1,"SCREENING 1",-7,"SCREENING","2013-07-11T12:02",-8
"CDISCPILOT01","LB","01-701-1028",64,"PH","pH","URINALYSIS","5.0","","5","8","5",5,"",5,8,"NORMAL","",4,"WEEK 2",14,"TREATMENT","2013-08-01T09:15",14
"CDISCPILOT01","LB","01-701-1028",189,"PH","pH","URINALYSIS","5.0","","5","8","5",5,"",5,8,"NORMAL","",9,"WEEK 12",84,"TREATMENT","2013-10-09T08:42",83
"CDISCPILOT01","LB","01-701-1028",288,"PH","pH","URINALYSIS","5.0","","5","8","5",5,"",5,8,"NORMAL","",12,"WEEK 24",168,"TREATMENT","2014-01-06T10:00",172
"CDISCPILOT01","LB","01-701-1028",32,"SPGRAV","Specific Gravity","URINALYSIS","1.008","","1.006","1.03","1.008",1.008,"",1.006,1.03,"NORMAL","Y",1,"SCREENING 1",-7,"SCREENING","2013-07-11T12:02",-8
"CDISCPILOT01","LB","01-701-1028",69,"SPGRAV","Specific Gravity","URINALYSIS","1.010","","1.006","1.03","1.01",1.01,"",1.006,1.03,"NORMAL","",4,"WEEK 2",14,"TREATMENT","2013-08-01T09:15",14
"CDISCPILOT01","LB","01-701-1028",194,"SPGRAV","Specific Gravity","URINALYSIS","1.008","","1.006","1.03","1.008",1.008,"",1.006,1.03,"NORMAL","",9,"WEEK 12",84,"TREATMENT","2013-10-09T08:42",83
"CDISCPILOT01","LB","01-701-1028",294,"SPGRAV","Specific Gravity","URINALYSIS","1.012","","1.006","1.03","1.012",1.012,"",1.006,1.03,"NORMAL","",12,"WEEK 24",168,"TREATMENT","2014-01-06T10:00",172
"CDISCPILOT01","LB","01-701-1028",33,"TSH","Thyrotropin","OTHER","2.90","mIU/L","0.32","5","2.9",2.9,"mU/L",0.32,5,"NORMAL","Y",1,"SCREENING 1",-7,"SCREENING","2013-07-11T12:02",-8
"CDISCPILOT01","LB","01-701-1028",35,"UROBIL","Urobilinogen","URINALYSIS","0","","","","0",0,"",0,0,"NORMAL","Y",1,"SCREENING 1",-7,"SCREENING","2013-07-11T12:02",-8
"CDISCPILOT01","LB","01-701-1028",71,"UROBIL","Urobilinogen","URINALYSIS","0","","","","0",0,"",0,0,"NORMAL","",4,"WEEK 2",14,"TREATMENT","2013-08-01T09:15",14
"CDISCPILOT01","LB","01-701-1028",196,"UROBIL","Urobilinogen","URINALYSIS","0","","","","0",0,"",0,0,"NORMAL","",9,"WEEK 12",84,"TREATMENT","2013-10-09T08:42",83
"CDISCPILOT01","LB","01-701-1028",296,"UROBIL","Urobilinogen","URINALYSIS","0","","","","0",0,"",0,0,"NORMAL","",12,"WEEK 24",168,"TREATMENT","2014-01-06T10:00",172
"CDISCPILOT01","LB","01-701-1028",36,"VITB12","Vitamin B12","OTHER","252","ng/L","200","900","185.9256",185.9256,"pmol/L",148,664,"NORMAL","Y",1,"SCREENING 1",-7,"SCREENING","2013-07-11T12:02",-8
"CDISCPILOT01","LB","01-701-1033",12,"COLOR","Color","URINALYSIS","N","","","","N",0,"",0,0,"NORMAL","Y",1,"SCREENING 1",-7,"SCREENING","2014-03-10T12:31",-8
"CDISCPILOT01","LB","01-701-1033",49,"COLOR","Color","URINALYSIS","N","","","","N",0,"",0,0,"NORMAL","",4,"WEEK 2",14,"TREATMENT","2014-04-01T08:55",15
"CDISCPILOT01","LB","01-701-1033",84,"COLOR","Color","URINALYSIS","N","","","","N",0,"",0,0,"NORMAL","",5,"WEEK 4",28,"TREATMENT","2014-04-14T10:38",28
"CDISCPILOT01","LB","01-701-1033",20,"KETONES","Ketones","URINALYSIS","0","","","","0",0,"",0,0,"NORMAL","Y",1,"SCREENING 1",-7,"SCREENING","2014-03-10T12:31",-8
"CDISCPILOT01","LB","01-701-1033",57,"KETONES","Ketones","URINALYSIS","0","","","","0",0,"",0,0,"NORMAL","",4,"WEEK 2",14,"TREATMENT","2014-04-01T08:55",15
"CDISCPILOT01","LB","01-701-1033",92,"KETONES","Ketones","URINALYSIS","0","","","","0",0,"",0,0,"NORMAL","",5,"WEEK 4",28,"TREATMENT","2014-04-14T10:38",28
"CDISCPILOT01","LB","01-701-1033",27,"PH","pH","URINALYSIS","5.0","","5","8","5",5,"",5,8,"NORMAL","Y",1,"SCREENING 1",-7,"SCREENING","2014-03-10T12:31",-8
"CDISCPILOT01","LB","01-701-1033",64,"PH","pH","URINALYSIS","5.0","","5","8","5",5,"",5,8,"NORMAL","",4,"WEEK 2",14,"TREATMENT","2014-04-01T08:55",15
"CDISCPILOT01","LB","01-701-1033",99,"PH","pH","URINALYSIS","5.0","","5","8","5",5,"",5,8,"NORMAL","",5,"WEEK 4",28,"TREATMENT","2014-04-14T10:38",28
"CDISCPILOT01","LB","01-701-1033",32,"SPGRAV","Specific Gravity","URINALYSIS","1.020","","1.006","1.03","1.02",1.02,"",1.006,1.03,"NORMAL","Y",1,"SCREENING 1",-7,"SCREENING","2014-03-10T12:31",-8
"CDISCPILOT01","LB","01-701-1033",69,"SPGRAV","Specific Gravity","URINALYSIS","1.014","","1.006","1.03","1.014",1.014,"",1.006,1.03,"NORMAL","",4,"WEEK 2",14,"TREATMENT","2014-04-01T08:55",15
"CDISCPILOT01","LB","01-701-1033",104,"SPGRAV","Specific Gravity","URINALYSIS","1.027","","1.006","1.03","1.027",1.027,"",1.006,1.03,"NORMAL","",5,"WEEK 4",28,"TREATMENT","2014-04-14T10:38",28
"CDISCPILOT01","LB","01-701-1033",33,"TSH","Thyrotropin","OTHER","0.84","mIU/L","0.32","5","0.84",0.84,"mU/L",0.32,5,"NORMAL","Y",1,"SCREENING 1",-7,"SCREENING","2014-03-10T12:31",-8
"CDISCPILOT01","LB","01-701-1033",35,"UROBIL","Urobilinogen","URINALYSIS","0","","","","0",0,"",0,0,"NORMAL","Y",1,"SCREENING 1",-7,"SCREENING","2014-03-10T12:31",-8
"CDISCPILOT01","LB","01-701-1033",71,"UROBIL","Urobilinogen","URINALYSIS","0","","","","0",0,"",0,0,"NORMAL","",4,"WEEK 2",14,"TREATMENT","2014-04-01T08:55",15
"CDISCPILOT01","LB","01-701-1033",106,"UROBIL","Urobilinogen","URINALYSIS","0","","","","0",0,"",0,0,"NORMAL","",5,"WEEK 4",28,"TREATMENT","2014-04-14T10:38",28
"CDISCPILOT01","LB","01-701-1033",36,"VITB12","Vitamin B12","OTHER","503","ng/L","200","900","371.1134",371.1134,"pmol/L",148,664,"NORMAL","Y",1,"SCREENING 1",-7,"SCREENING","2014-03-10T12:31",-8
"CDISCPILOT01","LB","01-701-1034",13,"COLOR","Color","URINALYSIS","N","","","","N",0,"",0,0,"NORMAL","Y",1,"SCREENING 1",-7,"SCREENING","2014-06-24T15:30",-7
"CDISCPILOT01","LB","01-701-1034",50,"COLOR","Color","URINALYSIS","N","","","","N",0,"",0,0,"NORMAL","",4,"WEEK 2",14,"TREATMENT","2014-07-15T09:25",15
"CDISCPILOT01","LB","01-701-1034",178,"COLOR","Color","URINALYSIS","N","","","","N",0,"",0,0,"NORMAL","",9,"WEEK 12",84,"TREATMENT","2014-09-25T15:40",87
"CDISCPILOT01","LB","01-701-1034",275,"COLOR","Color","URINALYSIS","N","","","","N",0,"",0,0,"NORMAL","",12,"WEEK 24",168,"TREATMENT","2014-12-17T14:27",170
"CDISCPILOT01","LB","01-701-1034",21,"KETONES","Ketones","URINALYSIS","0","","","","0",0,"",0,0,"NORMAL","Y",1,"SCREENING 1",-7,"SCREENING","2014-06-24T15:30",-7
"CDISCPILOT01","LB","01-701-1034",58,"KETONES","Ketones","URINALYSIS","0","","","","0",0,"",0,0,"NORMAL","",4,"WEEK 2",14,"TREATMENT","2014-07-15T09:25",15
"CDISCPILOT01","LB","01-701-1034",186,"KETONES","Ketones","URINALYSIS","0","","","","0",0,"",0,0,"NORMAL","",9,"WEEK 12",84,"TREATMENT","2014-09-25T15:40",87
"CDISCPILOT01","LB","01-701-1034",283,"KETONES","Ketones","URINALYSIS","0","","","","0",0,"",0,0,"NORMAL","",12,"WEEK 24",168,"TREATMENT","2014-12-17T14:27",170
"CDISCPILOT01","LB","01-701-1034",28,"PH","pH","URINALYSIS","5.0","","5","8","5",5,"",5,8,"NORMAL","Y",1,"SCREENING 1",-7,"SCREENING","2014-06-24T15:30",-7
"CDISCPILOT01","LB","01-701-1034",66,"PH","pH","URINALYSIS","5.0","","5","8","5",5,"",5,8,"NORMAL","",4,"WEEK 2",14,"TREATMENT","2014-07-15T09:25",15
"CDISCPILOT01","LB","01-701-1034",193,"PH","pH","URINALYSIS","5.0","","5","8","5",5,"",5,8,"NORMAL","",9,"WEEK 12",84,"TREATMENT","2014-09-25T15:40",87
"CDISCPILOT01","LB","01-701-1034",291,"PH","pH","URINALYSIS","5.0","","5","8","5",5,"",5,8,"NORMAL","",12,"WEEK 24",168,"TREATMENT","2014-12-17T14:27",170
"CDISCPILOT01","LB","01-701-1034",33,"SPGRAV","Specific Gravity","URINALYSIS","1.015","","1.006","1.03","1.015",1.015,"",1.006,1.03,"NORMAL","Y",1,"SCREENING 1",-7,"SCREENING","2014-06-24T15:30",-7
"CDISCPILOT01","LB","01-701-1034",71,"SPGRAV","Specific Gravity","URINALYSIS","1.019","","1.006","1.03","1.019",1.019,"",1.006,1.03,"NORMAL","",4,"WEEK 2",14,"TREATMENT","2014-07-15T09:25",15
"CDISCPILOT01","LB","01-701-1034",198,"SPGRAV","Specific Gravity","URINALYSIS","1.007","","1.006","1.03","1.007",1.007,"",1.006,1.03,"NORMAL","",9,"WEEK 12",84,"TREATMENT","2014-09-25T15:40",87
"CDISCPILOT01","LB","01-701-1034",296,"SPGRAV","Specific Gravity","URINALYSIS","1.015","","1.006","1.03","1.015",1.015,"",1.006,1.03,"NORMAL","",12,"WEEK 24",168,"TREATMENT","2014-12-17T14:27",170
"CDISCPILOT01","LB","01-701-1034",34,"TSH","Thyrotropin","OTHER","0.27","mIU/L","0.32","5","0.27",0.27,"mU/L",0.32,5,"LOW","Y",1,"SCREENING 1",-7,"SCREENING","2014-06-24T15:30",-7
"CDISCPILOT01","LB","01-701-1034",36,"UROBIL","Urobilinogen","URINALYSIS","0","","","","0",0,"",0,0,"NORMAL","Y",1,"SCREENING 1",-7,"SCREENING","2014-06-24T15:30",-7
"CDISCPILOT01","LB","01-701-1034",73,"UROBIL","Urobilinogen","URINALYSIS","0","","","","0",0,"",0,0,"NORMAL","",4,"WEEK 2",14,"TREATMENT","2014-07-15T09:25",15
"CDISCPILOT01","LB","01-701-1034",200,"UROBIL","Urobilinogen","URINALYSIS","0","","","","0",0,"",0,0,"NORMAL","",9,"WEEK 12",84,"TREATMENT","2014-09-25T15:40",87
"CDISCPILOT01","LB","01-701-1034",298,"UROBIL","Urobilinogen","URINALYSIS","0","","","","0",0,"",0,0,"NORMAL","",12,"WEEK 24",168,"TREATMENT","2014-12-17T14:27",170
"CDISCPILOT01","LB","01-701-1034",37,"VITB12","Vitamin B12","OTHER","592","ng/L","200","900","436.7776",436.7776,"pmol/L",148,664,"NORMAL","Y",1,"SCREENING 1",-7,"SCREENING","2014-06-24T15:30",-7
"CDISCPILOT01","LB","01-701-1047",12,"COLOR","Color","URINALYSIS","N","","","","N",0,"",0,0,"NORMAL","Y",1,"SCREENING 1",-7,"SCREENING","2013-01-22T14:36",-21
"CDISCPILOT01","LB","01-701-1047",49,"COLOR","Color","URINALYSIS","N","","","","N",0,"",0,0,"NORMAL","",4,"WEEK 2",14,"TREATMENT","2013-02-25T12:10",14
"CDISCPILOT01","LB","01-701-1047",104,"COLOR","Color","URINALYSIS","N","","","","N",0,"",0,0,"NORMAL","",6,"AMBUL ECG REMOVAL",30,"TREATMENT","2013-03-29T12:53",46
"CDISCPILOT01","LB","01-701-1047",20,"KETONES","Ketones","URINALYSIS","0","","","","0",0,"",0,0,"NORMAL","Y",1,"SCREENING 1",-7,"SCREENING","2013-01-22T14:36",-21
"CDISCPILOT01","LB","01-701-1047",57,"KETONES","Ketones","URINALYSIS","0","","","","0",0,"",0,0,"NORMAL","",4,"WEEK 2",14,"TREATMENT","2013-02-25T12:10",14
"CDISCPILOT01","LB","01-701-1047",108,"KETONES","Ketones","URINALYSIS","0","","","","0",0,"",0,0,"NORMAL","",6,"AMBUL ECG REMOVAL",30,"TREATMENT","2013-03-29T12:53",46
"CDISCPILOT01","LB","01-701-1047",27,"PH","pH","URINALYSIS","5.0","","5","8","5",5,"",5,8,"NORMAL","Y",1,"SCREENING 1",-7,"SCREENING","2013-01-22T14:36",-21
"CDISCPILOT01","LB","01-701-1047",64,"PH","pH","URINALYSIS","5.0","","5","8","5",5,"",5,8,"NORMAL","",4,"WEEK 2",14,"TREATMENT","2013-02-25T12:10",14
"CDISCPILOT01","LB","01-701-1047",114,"PH","pH","URINALYSIS","5.0","","5","8","5",5,"",5,8,"NORMAL","",6,"AMBUL ECG REMOVAL",30,"TREATMENT","2013-03-29T12:53",46
"CDISCPILOT01","LB","01-701-1047",32,"SPGRAV","Specific Gravity","URINALYSIS","1.021","","1.006","1.03","1.021",1.021,"",1.006,1.03,"NORMAL","Y",1,"SCREENING 1",-7,"SCREENING","2013-01-22T14:36",-21
"CDISCPILOT01","LB","01-701-1047",69,"SPGRAV","Specific Gravity","URINALYSIS","1.015","","1.006","1.03","1.015",1.015,"",1.006,1.03,"NORMAL","",4,"WEEK 2",14,"TREATMENT","2013-02-25T12:10",14
"CDISCPILOT01","LB","01-701-1047",117,"SPGRAV","Specific Gravity","URINALYSIS","1.025","","1.006","1.03","1.025",1.025,"",1.006,1.03,"NORMAL","",6,"AMBUL ECG REMOVAL",30,"TREATMENT","2013-03-29T12:53",46
"CDISCPILOT01","LB","01-701-1047",33,"TSH","Thyrotropin","OTHER","0.46","mIU/L","0.32","5","0.46",0.46,"mU/L",0.32,5,"NORMAL","Y",1,"SCREENING 1",-7,"SCREENING","2013-01-22T14:36",-21
"CDISCPILOT01","LB","01-701-1047",35,"UROBIL","Urobilinogen","URINALYSIS","0","","","","0",0,"",0,0,"NORMAL","Y",1,"SCREENING 1",-7,"SCREENING","2013-01-22T14:36",-21
"CDISCPILOT01","LB","01-701-1047",71,"UROBIL","Urobilinogen","URINALYSIS","0","","","","0",0,"",0,0,"NORMAL","",4,"WEEK 2",14,"TREATMENT","2013-02-25T12:10",14
"CDISCPILOT01","LB","01-701-1047",118,"UROBIL","Urobilinogen","URINALYSIS","0","","","","0",0,"",0,0,"NORMAL","",6,"AMBUL ECG REMOVAL",30,"TREATMENT","2013-03-29T12:53",46
"CDISCPILOT01","LB","01-701-1047",36,"VITB12","Vitamin B12","OTHER","585","ng/L","200","900","431.613",431.613,"pmol/L",148,664,"NORMAL","Y",1,"SCREENING 1",-7,"SCREENING","2013-01-22T14:36",-21
"CDISCPILOT01","LB","01-701-1097",12,"COLOR","Color","URINALYSIS","N","","","","N",0,"",0,0,"NORMAL","Y",1,"SCREENING 1",-7,"SCREENING","2013-12-23T12:30",-9
"CDISCPILOT01","LB","01-701-1097",49,"COLOR","Color","URINALYSIS","N","","","","N",0,"",0,0,"NORMAL","",4,"WEEK 2",14,"TREATMENT","2014-01-15T10:03",15
"CDISCPILOT01","LB","01-701-1097",174,"COLOR","Color","URINALYSIS","N","","","","N",0,"",0,0,"NORMAL","",9,"WEEK 12",84,"TREATMENT","2014-03-26T08:55",85
"CDISCPILOT01","LB","01-701-1097",269,"COLOR","Color","URINALYSIS","N","","","","N",0,"",0,0,"NORMAL","",12,"WEEK 24",168,"TREATMENT","2014-06-18T10:41",169
"CDISCPILOT01","LB","01-701-1097",304,"COLOR","Color","URINALYSIS","N","","","","N",0,"",0,0,"NORMAL","",13,"WEEK 26",182,"TREATMENT","2014-07-09T09:39",190
"CDISCPILOT01","LB","01-701-1097",20,"KETONES","Ketones","URINALYSIS","0","","","","0",0,"",0,0,"NORMAL","Y",1,"SCREENING 1",-7,"SCREENING","2013-12-23T12:30",-9
"CDISCPILOT01","LB","01-701-1097",57,"KETONES","Ketones","URINALYSIS","0","","","","0",0,"",0,0,"NORMAL","",4,"WEEK 2",14,"TREATMENT","2014-01-15T10:03",15
"CDISCPILOT01","LB","01-701-1097",182,"KETONES","Ketones","URINALYSIS","0","","","","0",0,"",0,0,"NORMAL","",9,"WEEK 12",84,"TREATMENT","2014-03-26T08:55",85
"CDISCPILOT01","LB","01-701-1097",277,"KETONES","Ketones","URINALYSIS","0","","","","0",0,"",0,0,"NORMAL","",12,"WEEK 24",168,"TREATMENT","2014-06-18T10:41",169
"CDISCPILOT01","LB","01-701-1097",312,"KETONES","Ketones","URINALYSIS","0","","","","0",0,"",0,0,"NORMAL","",13,"WEEK 26",182,"TREATMENT","2014-07-09T09:39",190
"CDISCPILOT01","LB","01-701-1097",27,"PH","pH","URINALYSIS","5.0","","5","8","5",5,"",5,8,"NORMAL","Y",1,"SCREENING 1",-7,"SCREENING","2013-12-23T12:30",-9
"CDISCPILOT01","LB","01-701-1097",64,"PH","pH","URINALYSIS","5.0","","5","8","5",5,"",5,8,"NORMAL","",4,"WEEK 2",14,"TREATMENT","2014-01-15T10:03",15
"CDISCPILOT01","LB","01-701-1097",189,"PH","pH","URINALYSIS","5.0","","5","8","5",5,"",5,8,"NORMAL","",9,"WEEK 12",84,"TREATMENT","2014-03-26T08:55",85
"CDISCPILOT01","LB","01-701-1097",284,"PH","pH","URINALYSIS","5.0","","5","8","5",5,"",5,8,"NORMAL","",12,"WEEK 24",168,"TREATMENT","2014-06-18T10:41",169
"CDISCPILOT01","LB","01-701-1097",319,"PH","pH","URINALYSIS","5.0","","5","8","5",5,"",5,8,"NORMAL","",13,"WEEK 26",182,"TREATMENT","2014-07-09T09:39",190
"CDISCPILOT01","LB","01-701-1097",32,"SPGRAV","Specific Gravity","URINALYSIS","1.019","","1.006","1.03","1.019",1.019,"",1.006,1.03,"NORMAL","Y",1,"SCREENING 1",-7,"SCREENING","2013-12-23T12:30",-9
"CDISCPILOT01","LB","01-701-1097",69,"SPGRAV","Specific Gravity","URINALYSIS","1.022","","1.006","1.03","1.022",1.022,"",1.006,1.03,"NORMAL","",4,"WEEK 2",14,"TREATMENT","2014-01-15T10:03",15
"CDISCPILOT01","LB","01-701-1097",194,"SPGRAV","Specific Gravity","URINALYSIS","1.026","","1.006","1.03","1.026",1.026,"",1.006,1.03,"NORMAL","",9,"WEEK 12",84,"TREATMENT","2014-03-26T08:55",85
"CDISCPILOT01","LB","01-701-1097",289,"SPGRAV","Specific Gravity","URINALYSIS","1.025","","1.006","1.03","1.025",1.025,"",1.006,1.03,"NORMAL","",12,"WEEK 24",168,"TREATMENT","2014-06-18T10:41",169
"CDISCPILOT01","LB","01-701-1097",324,"SPGRAV","Specific Gravity","URINALYSIS","1.019","","1.006","1.03","1.019",1.019,"",1.006,1.03,"NORMAL","",13,"WEEK 26",182,"TREATMENT","2014-07-09T09:39",190
"CDISCPILOT01","LB","01-701-1097",33,"TSH","Thyrotropin","OTHER","2.75","mIU/L","0.32","5","2.75",2.75,"mU/L",0.32,5,"NORMAL","Y",1,"SCREENING 1",-7,"SCREENING","2013-12-23T12:30",-9
"CDISCPILOT01","LB","01-701-1097",35,"UROBIL","Urobilinogen","URINALYSIS","0","","","","0",0,"",0,0,"NORMAL","Y",1,"SCREENING 1",-7,"SCREENING","2013-12-23T12:30",-9
"CDISCPILOT01","LB","01-701-1097",71,"UROBIL","Urobilinogen","URINALYSIS","0","","","","0",0,"",0,0,"NORMAL","",4,"WEEK 2",14,"TREATMENT","2014-01-15T10:03",15
"CDISCPILOT01","LB","01-701-1097",196,"UROBIL","Urobilinogen","URINALYSIS","0","","","","0",0,"",0,0,"NORMAL","",9,"WEEK 12",84,"TREATMENT","2014-03-26T08:55",85
"CDISCPILOT01","LB","01-701-1097",291,"UROBIL","Urobilinogen","URINALYSIS","0","","","","0",0,"",0,0,"NORMAL","",12,"WEEK 24",168,"TREATMENT","2014-06-18T10:41",169
"CDISCPILOT01","LB","01-701-1097",326,"UROBIL","Urobilinogen","URINALYSIS","0","","","","0",0,"",0,0,"NORMAL","",13,"WEEK 26",182,"TREATMENT","2014-07-09T09:39",190
"CDISCPILOT01","LB","01-701-1097",36,"VITB12","Vitamin B12","OTHER","411","ng/L","200","900","303.2358",303.2358,"pmol/L",148,664,"NORMAL","Y",1,"SCREENING 1",-7,"SCREENING","2013-12-23T12:30",-9
"CDISCPILOT01","LB","01-701-1111",12,"COLOR","Color","URINALYSIS","N","","","","N",0,"",0,0,"NORMAL","Y",1,"SCREENING 1",-7,"SCREENING","2012-08-25T15:25",-13
"CDISCPILOT01","LB","01-701-1111",50,"COLOR","Color","URINALYSIS","N","","","","N",0,"",0,0,"NORMAL","",4,"WEEK 2",14,"TREATMENT","2012-09-17T11:48",11
"CDISCPILOT01","LB","01-701-1111",20,"KETONES","Ketones","URINALYSIS","0","","","","0",0,"",0,0,"NORMAL","Y",1,"SCREENING 1",-7,"SCREENING","2012-08-25T15:25",-13
"CDISCPILOT01","LB","01-701-1111",58,"KETONES","Ketones","URINALYSIS","0","","","","0",0,"",0,0,"NORMAL","",4,"WEEK 2",14,"TREATMENT","2012-09-17T11:48",11
"CDISCPILOT01","LB","01-701-1111",27,"PH","pH","URINALYSIS","6.0","","5","8","6",6,"",5,8,"NORMAL","Y",1,"SCREENING 1",-7,"SCREENING","2012-08-25T15:25",-13
"CDISCPILOT01","LB","01-701-1111",65,"PH","pH","URINALYSIS","5.0","","5","8","5",5,"",5,8,"NORMAL","",4,"WEEK 2",14,"TREATMENT","2012-09-17T11:48",11
"CDISCPILOT01","LB","01-701-1111",32,"SPGRAV","Specific Gravity","URINALYSIS","1.007","","1.006","1.03","1.007",1.007,"",1.006,1.03,"NORMAL","Y",1,"SCREENING 1",-7,"SCREENING","2012-08-25T15:25",-13
"CDISCPILOT01","LB","01-701-1111",70,"SPGRAV","Specific Gravity","URINALYSIS","1.004","","1.006","1.03","1.004",1.004,"",1.006,1.03,"LOW","",4,"WEEK 2",14,"TREATMENT","2012-09-17T11:48",11
"CDISCPILOT01","LB","01-701-1111",33,"TSH","Thyrotropin","OTHER","1.25","mIU/L","0.32","5","1.25",1.25,"mU/L",0.32,5,"NORMAL","Y",1,"SCREENING 1",-7,"SCREENING","2012-08-25T15:25",-13
"CDISCPILOT01","LB","01-701-1111",35,"UROBIL","Urobilinogen","URINALYSIS","0","","","","0",0,"",0,0,"NORMAL","Y",1,"SCREENING 1",-7,"SCREENING","2012-08-25T15:25",-13
"CDISCPILOT01","LB","01-701-1111",72,"UROBIL","Urobilinogen","URINALYSIS","0","","","","0",0,"",0,0,"NORMAL","",4,"WEEK 2",14,"TREATMENT","2012-09-17T11:48",11
"CDISCPILOT01","LB","01-701-1111",36,"VITB12","Vitamin B12","OTHER","527","ng/L","200","900","388.8206",388.8206,"pmol/L",148,664,"NORMAL","Y",1,"SCREENING 1",-7,"SCREENING","2012-08-25T15:25",-13
"CDISCPILOT01","LB","01-701-1115",12,"COLOR","Color","URINALYSIS","N","","","","N",0,"",0,0,"NORMAL","Y",1,"SCREENING 1",-7,"SCREENING","2012-11-23T11:20",-7
"CDISCPILOT01","LB","01-701-1115",49,"COLOR","Color","URINALYSIS","N","","","","N",0,"",0,0,"NORMAL","",4,"WEEK 2",14,"TREATMENT","2012-12-13T14:05",14
"CDISCPILOT01","LB","01-701-1115",159,"COLOR","Color","URINALYSIS","N","","","","N",0,"",0,0,"NORMAL","",8,"WEEK 8",56,"TREATMENT","2013-01-23T12:13",55
"CDISCPILOT01","LB","01-701-1115",20,"KETONES","Ketones","URINALYSIS","0","","","","0",0,"",0,0,"NORMAL","Y",1,"SCREENING 1",-7,"SCREENING","2012-11-23T11:20",-7
"CDISCPILOT01","LB","01-701-1115",57,"KETONES","Ketones","URINALYSIS","0","","","","0",0,"",0,0,"NORMAL","",4,"WEEK 2",14,"TREATMENT","2012-12-13T14:05",14
"CDISCPILOT01","LB","01-701-1115",167,"KETONES","Ketones","URINALYSIS","0","","","","0",0,"",0,0,"NORMAL","",8,"WEEK 8",56,"TREATMENT","2013-01-23T12:13",55
"CDISCPILOT01","LB","01-701-1115",27,"PH","pH","URINALYSIS","5.0","","5","8","5",5,"",5,8,"NORMAL","Y",1,"SCREENING 1",-7,"SCREENING","2012-11-23T11:20",-7
"CDISCPILOT01","LB","01-701-1115",64,"PH","pH","URINALYSIS","5.0","","5","8","5",5,"",5,8,"NORMAL","",4,"WEEK 2",14,"TREATMENT","2012-12-13T14:05",14
"CDISCPILOT01","LB","01-701-1115",174,"PH","pH","URINALYSIS","5.0","","5","8","5",5,"",5,8,"NORMAL","",8,"WEEK 8",56,"TREATMENT","2013-01-23T12:13",55
"CDISCPILOT01","LB","01-701-1115",32,"SPGRAV","Specific Gravity","URINALYSIS","1.017","","1.006","1.03","1.017",1.017,"",1.006,1.03,"NORMAL","Y",1,"SCREENING 1",-7,"SCREENING","2012-11-23T11:20",-7
"CDISCPILOT01","LB","01-701-1115",69,"SPGRAV","Specific Gravity","URINALYSIS","1.023","","1.006","1.03","1.023",1.023,"",1.006,1.03,"NORMAL","",4,"WEEK 2",14,"TREATMENT","2012-12-13T14:05",14
"CDISCPILOT01","LB","01-701-1115",179,"SPGRAV","Specific Gravity","URINALYSIS","1.023","","1.006","1.03","1.023",1.023,"",1.006,1.03,"NORMAL","",8,"WEEK 8",56,"TREATMENT","2013-01-23T12:13",55
"CDISCPILOT01","LB","01-701-1115",33,"TSH","Thyrotropin","OTHER","2.63","mIU/L","0.32","5","2.63",2.63,"mU/L",0.32,5,"NORMAL","Y",1,"SCREENING 1",-7,"SCREENING","2012-11-23T11:20",-7
"CDISCPILOT01","LB","01-701-1115",35,"UROBIL","Urobilinogen","URINALYSIS","0","","","","0",0,"",0,0,"NORMAL","Y",1,"SCREENING 1",-7,"SCREENING","2012-11-23T11:20",-7
"CDISCPILOT01","LB","01-701-1115",71,"UROBIL","Urobilinogen","URINALYSIS","0","","","","0",0,"",0,0,"NORMAL","",4,"WEEK 2",14,"TREATMENT","2012-12-13T14:05",14
"CDISCPILOT01","LB","01-701-1115",181,"UROBIL","Urobilinogen","URINALYSIS","0","","","","0",0,"",0,0,"NORMAL","",8,"WEEK 8",56,"TREATMENT","2013-01-23T12:13",55
"CDISCPILOT01","LB","01-701-1115",36,"VITB12","Vitamin B12","OTHER","641","ng/L","200","900","472.9298",472.9298,"pmol/L",148,664,"NORMAL","Y",1,"SCREENING 1",-7,"SCREENING","2012-11-23T11:20",-7
"CDISCPILOT01","LB","01-701-1118",12,"COLOR","Color","URINALYSIS","N","","","","N",0,"",0,0,"NORMAL","Y",1,"SCREENING 1",-7,"SCREENING","2014-02-27T10:32",-13
"CDISCPILOT01","LB","01-701-1118",49,"COLOR","Color","URINALYSIS","N","","","","N",0,"",0,0,"NORMAL","",4,"WEEK 2",14,"TREATMENT","2014-03-26T10:50",15
"CDISCPILOT01","LB","01-701-1118",174,"COLOR","Color","URINALYSIS","N","","","","N",0,"",0,0,"NORMAL","",9,"WEEK 12",84,"TREATMENT","2014-06-05T08:14",86
"CDISCPILOT01","LB","01-701-1118",269,"COLOR","Color","URINALYSIS","N","","","","N",0,"",0,0,"NORMAL","",12,"WEEK 24",168,"TREATMENT","2014-08-27T11:27",169
"CDISCPILOT01","LB","01-701-1118",20,"KETONES","Ketones","URINALYSIS","0","","","","0",0,"",0,0,"NORMAL","Y",1,"SCREENING 1",-7,"SCREENING","2014-02-27T10:32",-13
"CDISCPILOT01","LB","01-701-1118",57,"KETONES","Ketones","URINALYSIS","0","","","","0",0,"",0,0,"NORMAL","",4,"WEEK 2",14,"TREATMENT","2014-03-26T10:50",15
"CDISCPILOT01","LB","01-701-1118",182,"KETONES","Ketones","URINALYSIS","0","","","","0",0,"",0,0,"NORMAL","",9,"WEEK 12",84,"TREATMENT","2014-06-05T08:14",86
"CDISCPILOT01","LB","01-701-1118",277,"KETONES","Ketones","URINALYSIS","0","","","","0",0,"",0,0,"NORMAL","",12,"WEEK 24",168,"TREATMENT","2014-08-27T11:27",169
"CDISCPILOT01","LB","01-701-1118",27,"PH","pH","URINALYSIS","6.0","","5","8","6",6,"",5,8,"NORMAL","Y",1,"SCREENING 1",-7,"SCREENING","2014-02-27T10:32",-13
"CDISCPILOT01","LB","01-701-1118",64,"PH","pH","URINALYSIS","6.0","","5","8","6",6,"",5,8,"NORMAL","",4,"WEEK 2",14,"TREATMENT","2014-03-26T10:50",15
"CDISCPILOT01","LB","01-701-1118",189,"PH","pH","URINALYSIS","5.0","","5","8","5",5,"",5,8,"NORMAL","",9,"WEEK 12",84,"TREATMENT","2014-06-05T08:14",86
"CDISCPILOT01","LB","01-701-1118",284,"PH","pH","URINALYSIS","6.0","","5","8","6",6,"",5,8,"NORMAL","",12,"WEEK 24",168,"TREATMENT","2014-08-27T11:27",169
"CDISCPILOT01","LB","01-701-1118",32,"SPGRAV","Specific Gravity","URINALYSIS","1.030","","1.01","1.034","1.03",1.03,"",1.01,1.034,"NORMAL","Y",1,"SCREENING 1",-7,"SCREENING","2014-02-27T10:32",-13
"CDISCPILOT01","LB","01-701-1118",69,"SPGRAV","Specific Gravity","URINALYSIS","1.033","","1.01","1.034","1.033",1.033,"",1.01,1.034,"NORMAL","",4,"WEEK 2",14,"TREATMENT","2014-03-26T10:50",15
"CDISCPILOT01","LB","01-701-1118",194,"SPGRAV","Specific Gravity","URINALYSIS","1.030","","1.01","1.034","1.03",1.03,"",1.01,1.034,"NORMAL","",9,"WEEK 12",84,"TREATMENT","2014-06-05T08:14",86
"CDISCPILOT01","LB","01-701-1118",289,"SPGRAV","Specific Gravity","URINALYSIS","1.026","","1.01","1.034","1.026",1.026,"",1.01,1.034,"NORMAL","",12,"WEEK 24",168,"TREATMENT","2014-08-27T11:27",169
"CDISCPILOT01","LB","01-701-1118",33,"TSH","Thyrotropin","OTHER","1.85","mIU/L","0.32","5","1.85",1.85,"mU/L",0.32,5,"NORMAL","Y",1,"SCREENING 1",-7,"SCREENING","2014-02-27T10:32",-13
"CDISCPILOT01","LB","01-701-1118",35,"UROBIL","Urobilinogen","URINALYSIS","0","","","","0",0,"",0,0,"NORMAL","Y",1,"SCREENING 1",-7,"SCREENING","2014-02-27T10:32",-13
"CDISCPILOT01","LB","01-701-1118",71,"UROBIL","Urobilinogen","URINALYSIS","0","","","","0",0,"",0,0,"NORMAL","",4,"WEEK 2",14,"TREATMENT","2014-03-26T10:50",15
"CDISCPILOT01","LB","01-701-1118",196,"UROBIL","Urobilinogen","URINALYSIS","0","","","","0",0,"",0,0,"NORMAL","",9,"WEEK 12",84,"TREATMENT","2014-06-05T08:14",86
"CDISCPILOT01","LB","01-701-1118",291,"UROBIL","Urobilinogen","URINALYSIS","0","","","","0",0,"",0,0,"NORMAL","",12,"WEEK 24",168,"TREATMENT","2014-08-27T11:27",169
"CDISCPILOT01","LB","01-701-1118",36,"VITB12","Vitamin B12","OTHER","289","ng/L","200","900","213.2242",213.2242,"pmol/L",148,664,"NORMAL","Y",1,"SCREENING 1",-7,"SCREENING","2014-02-27T10:32",-13
"CDISCPILOT01","LB","01-701-1130",12,"COLOR","Color","URINALYSIS","N","","","","N",0,"",0,0,"NORMAL","Y",1,"SCREENING 1",-7,"SCREENING","2014-02-09T12:01",-6
"CDISCPILOT01","LB","01-701-1130",49,"COLOR","Color","URINALYSIS","N","","","","N",0,"",0,0,"NORMAL","",4,"WEEK 2",14,"TREATMENT","2014-03-01T08:30",15
"CDISCPILOT01","LB","01-701-1130",174,"COLOR","Color","URINALYSIS","N","","","","N",0,"",0,0,"NORMAL","",9,"WEEK 12",84,"TREATMENT","2014-05-16T11:37",91
"CDISCPILOT01","LB","01-701-1130",269,"COLOR","Color","URINALYSIS","N","","","","N",0,"",0,0,"NORMAL","",12,"WEEK 24",168,"TREATMENT","2014-08-02T13:50",169
"CDISCPILOT01","LB","01-701-1130",20,"KETONES","Ketones","URINALYSIS","0","","","","0",0,"",0,0,"NORMAL","Y",1,"SCREENING 1",-7,"SCREENING","2014-02-09T12:01",-6
"CDISCPILOT01","LB","01-701-1130",57,"KETONES","Ketones","URINALYSIS","0","","","","0",0,"",0,0,"NORMAL","",4,"WEEK 2",14,"TREATMENT","2014-03-01T08:30",15
"CDISCPILOT01","LB","01-701-1130",182,"KETONES","Ketones","URINALYSIS","0","","","","0",0,"",0,0,"NORMAL","",9,"WEEK 12",84,"TREATMENT","2014-05-16T11:37",91
"CDISCPILOT01","LB","01-701-1130",277,"KETONES","Ketones","URINALYSIS","0","","","","0",0,"",0,0,"NORMAL","",12,"WEEK 24",168,"TREATMENT","2014-08-02T13:50",169
"CDISCPILOT01","LB","01-701-1130",27,"PH","pH","URINALYSIS","5.0","","5","8","5",5,"",5,8,"NORMAL","Y",1,"SCREENING 1",-7,"SCREENING","2014-02-09T12:01",-6
"CDISCPILOT01","LB","01-701-1130",64,"PH","pH","URINALYSIS","5.0","","5","8","5",5,"",5,8,"NORMAL","",4,"WEEK 2",14,"TREATMENT","2014-03-01T08:30",15
"CDISCPILOT01","LB","01-701-1130",189,"PH","pH","URINALYSIS","5.0","","5","8","5",5,"",5,8,"NORMAL","",9,"WEEK 12",84,"TREATMENT","2014-05-16T11:37",91
"CDISCPILOT01","LB","01-701-1130",284,"PH","pH","URINALYSIS","6.0","","5","8","6",6,"",5,8,"NORMAL","",12,"WEEK 24",168,"TREATMENT","2014-08-02T13:50",169
"CDISCPILOT01","LB","01-701-1130",32,"SPGRAV","Specific Gravity","URINALYSIS","1.018","","1.006","1.03","1.018",1.018,"",1.006,1.03,"NORMAL","Y",1,"SCREENING 1",-7,"SCREENING","2014-02-09T12:01",-6
"CDISCPILOT01","LB","01-701-1130",69,"SPGRAV","Specific Gravity","URINALYSIS","1.018","","1.006","1.03","1.018",1.018,"",1.006,1.03,"NORMAL","",4,"WEEK 2",14,"TREATMENT","2014-03-01T08:30",15
"CDISCPILOT01","LB","01-701-1130",194,"SPGRAV","Specific Gravity","URINALYSIS","1.016","","1.006","1.03","1.016",1.016,"",1.006,1.03,"NORMAL","",9,"WEEK 12",84,"TREATMENT","2014-05-16T11:37",91
"CDISCPILOT01","LB","01-701-1130",289,"SPGRAV","Specific Gravity","URINALYSIS","1.016","","1.006","1.03","1.016",1.016,"",1.006,1.03,"NORMAL","",12,"WEEK 24",168,"TREATMENT","2014-08-02T13:50",169
"CDISCPILOT01","LB","01-701-1130",33,"TSH","Thyrotropin","OTHER","3.59","mIU/L","0.32","5","3.59",3.59,"mU/L",0.32,5,"NORMAL","Y",1,"SCREENING 1",-7,"SCREENING","2014-02-09T12:01",-6
"CDISCPILOT01","LB","01-701-1130",35,"UROBIL","Urobilinogen","URINALYSIS","0","","","","0",0,"",0,0,"NORMAL","Y",1,"SCREENING 1",-7,"SCREENING","2014-02-09T12:01",-6
"CDISCPILOT01","LB","01-701-1130",71,"UROBIL","Urobilinogen","URINALYSIS","0","","","","0",0,"",0,0,"NORMAL","",4,"WEEK 2",14,"TREATMENT","2014-03-01T08:30",15
"CDISCPILOT01","LB","01-701-1130",196,"UROBIL","Urobilinogen","URINALYSIS","0","","","","0",0,"",0,0,"NORMAL","",9,"WEEK 12",84,"TREATMENT","2014-05-16T11:37",91
"CDISCPILOT01","LB","01-701-1130",291,"UROBIL","Urobilinogen","URINALYSIS","0","","","","0",0,"",0,0,"NORMAL","",12,"WEEK 24",168,"TREATMENT","2014-08-02T13:50",169
"CDISCPILOT01","LB","01-701-1130",36,"VITB12","Vitamin B12","OTHER","355","ng/L","200","900","261.919",261.919,"pmol/L",148,664,"NORMAL","Y",1,"SCREENING 1",-7,"SCREENING","2014-02-09T12:01",-6
"CDISCPILOT01","LB","01-701-1133",12,"COLOR","Color","URINALYSIS","N","","","","N",0,"",0,0,"NORMAL","Y",1,"SCREENING 1",-7,"SCREENING","2012-10-23T10:57",-5
"CDISCPILOT01","LB","01-701-1133",39,"COLOR","Color","URINALYSIS","N","","","","N",0,"",0,0,"NORMAL","",4,"WEEK 2",14,"TREATMENT","2012-11-12T10:15",16
"CDISCPILOT01","LB","01-701-1133",156,"COLOR","Color","URINALYSIS","N","","","","N",0,"",0,0,"NORMAL","",9,"WEEK 12",84,"TREATMENT","2013-01-22T14:05",87
"CDISCPILOT01","LB","01-701-1133",251,"COLOR","Color","URINALYSIS","N","","","","N",0,"",0,0,"NORMAL","",12,"WEEK 24",168,"TREATMENT","2013-04-18T15:30",173
"CDISCPILOT01","LB","01-701-1133",20,"KETONES","Ketones","URINALYSIS","0","","","","0",0,"",0,0,"NORMAL","Y",1,"SCREENING 1",-7,"SCREENING","2012-10-23T10:57",-5
"CDISCPILOT01","LB","01-701-1133",43,"KETONES","Ketones","URINALYSIS","0","","","","0",0,"",0,0,"NORMAL","",4,"WEEK 2",14,"TREATMENT","2012-11-12T10:15",16
"CDISCPILOT01","LB","01-701-1133",164,"KETONES","Ketones","URINALYSIS","0","","","","0",0,"",0,0,"NORMAL","",9,"WEEK 12",84,"TREATMENT","2013-01-22T14:05",87
"CDISCPILOT01","LB","01-701-1133",259,"KETONES","Ketones","URINALYSIS","0","","","","0",0,"",0,0,"NORMAL","",12,"WEEK 24",168,"TREATMENT","2013-04-18T15:30",173
"CDISCPILOT01","LB","01-701-1133",27,"PH","pH","URINALYSIS","5.0","","5","8","5",5,"",5,8,"NORMAL","Y",1,"SCREENING 1",-7,"SCREENING","2012-10-23T10:57",-5
"CDISCPILOT01","LB","01-701-1133",49,"PH","pH","URINALYSIS","5.0","","5","8","5",5,"",5,8,"NORMAL","",4,"WEEK 2",14,"TREATMENT","2012-11-12T10:15",16
"CDISCPILOT01","LB","01-701-1133",171,"PH","pH","URINALYSIS","5.0","","5","8","5",5,"",5,8,"NORMAL","",9,"WEEK 12",84,"TREATMENT","2013-01-22T14:05",87
"CDISCPILOT01","LB","01-701-1133",266,"PH","pH","URINALYSIS","6.0","","5","8","6",6,"",5,8,"NORMAL","",12,"WEEK 24",168,"TREATMENT","2013-04-18T15:30",173
"CDISCPILOT01","LB","01-701-1133",32,"SPGRAV","Specific Gravity","URINALYSIS","1.011","","1.006","1.03","1.011",1.011,"",1.006,1.03,"NORMAL","Y",1,"SCREENING 1",-7,"SCREENING","2012-10-23T10:57",-5
"CDISCPILOT01","LB","01-701-1133",52,"SPGRAV","Specific Gravity","URINALYSIS","1.023","","1.006","1.03","1.023",1.023,"",1.006,1.03,"NORMAL","",4,"WEEK 2",14,"TREATMENT","2012-11-12T10:15",16
"CDISCPILOT01","LB","01-701-1133",176,"SPGRAV","Specific Gravity","URINALYSIS","1.030","","1.006","1.03","1.03",1.03,"",1.006,1.03,"NORMAL","",9,"WEEK 12",84,"TREATMENT","2013-01-22T14:05",87
"CDISCPILOT01","LB","01-701-1133",271,"SPGRAV","Specific Gravity","URINALYSIS","1.029","","1.006","1.03","1.029",1.029,"",1.006,1.03,"NORMAL","",12,"WEEK 24",168,"TREATMENT","2013-04-18T15:30",173
"CDISCPILOT01","LB","01-701-1133",33,"TSH","Thyrotropin","OTHER","1.09","mIU/L","0.32","5","1.09",1.09,"mU/L",0.32,5,"NORMAL","Y",1,"SCREENING 1",-7,"SCREENING","2012-10-23T10:57",-5
"CDISCPILOT01","LB","01-701-1133",35,"UROBIL","Urobilinogen","URINALYSIS","0","","","","0",0,"",0,0,"NORMAL","Y",1,"SCREENING 1",-7,"SCREENING","2012-10-23T10:57",-5
"CDISCPILOT01","LB","01-701-1133",53,"UROBIL","Urobilinogen","URINALYSIS","0","","","","0",0,"",0,0,"NORMAL","",4,"WEEK 2",14,"TREATMENT","2012-11-12T10:15",16
"CDISCPILOT01","LB","01-701-1133",178,"UROBIL","Urobilinogen","URINALYSIS","0","","","","0",0,"",0,0,"NORMAL","",9,"WEEK 12",84,"TREATMENT","2013-01-22T14:05",87
"CDISCPILOT01","LB","01-701-1133",273,"UROBIL","Urobilinogen","URINALYSIS","0","","","","0",0,"",0,0,"NORMAL","",12,"WEEK 24",168,"TREATMENT","2013-04-18T15:30",173
"CDISCPILOT01","LB","01-701-1133",36,"VITB12","Vitamin B12","OTHER","288","ng/L","200","900","212.4864",212.4864,"pmol/L",148,664,"NORMAL","Y",1,"SCREENING 1",-7,"SCREENING","2012-10-23T10:57",-5
"CDISCPILOT01","LB","01-701-1146",12,"COLOR","Color","URINALYSIS","N","","","","N",0,"",0,0,"NORMAL","Y",1,"SCREENING 1",-7,"SCREENING","2013-05-07T13:52",-13
"CDISCPILOT01","LB","01-701-1146",49,"COLOR","Color","URINALYSIS","N","","","","N",0,"",0,0,"NORMAL","",4,"WEEK 2",14,"TREATMENT","2013-06-03T13:16",15
"CDISCPILOT01","LB","01-701-1146",114,"COLOR","Color","URINALYSIS","N","","","","N",0,"",0,0,"NORMAL","",7,"WEEK 6",42,"TREATMENT","2013-06-30T11:44",42
"CDISCPILOT01","LB","01-701-1146",20,"KETONES","Ketones","URINALYSIS","0","","","","0",0,"",0,0,"NORMAL","Y",1,"SCREENING 1",-7,"SCREENING","2013-05-07T13:52",-13
"CDISCPILOT01","LB","01-701-1146",57,"KETONES","Ketones","URINALYSIS","0","","","","0",0,"",0,0,"NORMAL","",4,"WEEK 2",14,"TREATMENT","2013-06-03T13:16",15
"CDISCPILOT01","LB","01-701-1146",122,"KETONES","Ketones","URINALYSIS","0","","","","0",0,"",0,0,"NORMAL","",7,"WEEK 6",42,"TREATMENT","2013-06-30T11:44",42
"CDISCPILOT01","LB","01-701-1146",27,"PH","pH","URINALYSIS","5.0","","5","8","5",5,"",5,8,"NORMAL","Y",1,"SCREENING 1",-7,"SCREENING","2013-05-07T13:52",-13
"CDISCPILOT01","LB","01-701-1146",64,"PH","pH","URINALYSIS","5.0","","5","8","5",5,"",5,8,"NORMAL","",4,"WEEK 2",14,"TREATMENT","2013-06-03T13:16",15
"CDISCPILOT01","LB","01-701-1146",129,"PH","pH","URINALYSIS","5.0","","5","8","5",5,"",5,8,"NORMAL","",7,"WEEK 6",42,"TREATMENT","2013-06-30T11:44",42
"CDISCPILOT01","LB","01-701-1146",32,"SPGRAV","Specific Gravity","URINALYSIS","1.008","","1.006","1.03","1.008",1.008,"",1.006,1.03,"NORMAL","Y",1,"SCREENING 1",-7,"SCREENING","2013-05-07T13:52",-13
"CDISCPILOT01","LB","01-701-1146",69,"SPGRAV","Specific Gravity","URINALYSIS","1.011","","1.006","1.03","1.011",1.011,"",1.006,1.03,"NORMAL","",4,"WEEK 2",14,"TREATMENT","2013-06-03T13:16",15
"CDISCPILOT01","LB","01-701-1146",134,"SPGRAV","Specific Gravity","URINALYSIS","1.014","","1.006","1.03","1.014",1.014,"",1.006,1.03,"NORMAL","",7,"WEEK 6",42,"TREATMENT","2013-06-30T11:44",42
"CDISCPILOT01","LB","01-701-1146",33,"TSH","Thyrotropin","OTHER","1.98","mIU/L","0.32","5","1.98",1.98,"mU/L",0.32,5,"NORMAL","Y",1,"SCREENING 1",-7,"SCREENING","2013-05-07T13:52",-13
"CDISCPILOT01","LB","01-701-1146",35,"UROBIL","Urobilinogen","URINALYSIS","0","","","","0",0,"",0,0,"NORMAL","Y",1,"SCREENING 1",-7,"SCREENING","2013-05-07T13:52",-13
"CDISCPILOT01","LB","01-701-1146",71,"UROBIL","Urobilinogen","URINALYSIS","0","","","","0",0,"",0,0,"NORMAL","",4,"WEEK 2",14,"TREATMENT","2013-06-03T13:16",15
"CDISCPILOT01","LB","01-701-1146",136,"UROBIL","Urobilinogen","URINALYSIS","0","","","","0",0,"",0,0,"NORMAL","",7,"WEEK 6",42,"TREATMENT","2013-06-30T11:44",42
"CDISCPILOT01","LB","01-701-1146",36,"VITB12","Vitamin B12","OTHER","381","ng/L","200","900","281.1018",281.1018,"pmol/L",148,664,"NORMAL","Y",1,"SCREENING 1",-7,"SCREENING","2013-05-07T13:52",-13
"CDISCPILOT01","LB","01-701-1148",12,"COLOR","Color","URINALYSIS","N","","","","N",0,"",0,0,"NORMAL","Y",1,"SCREENING 1",-7,"SCREENING","2013-08-14T13:04",-9
"CDISCPILOT01","LB","01-701-1148",49,"COLOR","Color","URINALYSIS","N","","","","N",0,"",0,0,"NORMAL","",4,"WEEK 2",14,"TREATMENT","2013-09-05T15:43",14
"CDISCPILOT01","LB","01-701-1148",174,"COLOR","Color","URINALYSIS","N","","","","N",0,"",0,0,"NORMAL","",9,"WEEK 12",84,"TREATMENT","2013-11-17T10:59",87
"CDISCPILOT01","LB","01-701-1148",269,"COLOR","Color","URINALYSIS","N","","","","N",0,"",0,0,"NORMAL","",12,"WEEK 24",168,"TREATMENT","2014-02-08T14:40",170
"CDISCPILOT01","LB","01-701-1148",20,"KETONES","Ketones","URINALYSIS","0","","","","0",0,"",0,0,"NORMAL","Y",1,"SCREENING 1",-7,"SCREENING","2013-08-14T13:04",-9
"CDISCPILOT01","LB","01-701-1148",57,"KETONES","Ketones","URINALYSIS","0","","","","0",0,"",0,0,"NORMAL","",4,"WEEK 2",14,"TREATMENT","2013-09-05T15:43",14
"CDISCPILOT01","LB","01-701-1148",182,"KETONES","Ketones","URINALYSIS","0","","","","0",0,"",0,0,"NORMAL","",9,"WEEK 12",84,"TREATMENT","2013-11-17T10:59",87
"CDISCPILOT01","LB","01-701-1148",277,"KETONES","Ketones","URINALYSIS","0","","","","0",0,"",0,0,"NORMAL","",12,"WEEK 24",168,"TREATMENT","2014-02-08T14:40",170
"CDISCPILOT01","LB","01-701-1148",27,"PH","pH","URINALYSIS","5.0","","5","8","5",5,"",5,8,"NORMAL","Y",1,"SCREENING 1",-7,"SCREENING","2013-08-14T13:04",-9
"CDISCPILOT01","LB","01-701-1148",64,"PH","pH","URINALYSIS","7.0","","5","8","7",7,"",5,8,"NORMAL","",4,"WEEK 2",14,"TREATMENT","2013-09-05T15:43",14
"CDISCPILOT01","LB","01-701-1148",189,"PH","pH","URINALYSIS","5.0","","5","8","5",5,"",5,8,"NORMAL","",9,"WEEK 12",84,"TREATMENT","2013-11-17T10:59",87
"CDISCPILOT01","LB","01-701-1148",284,"PH","pH","URINALYSIS","5.0","","5","8","5",5,"",5,8,"NORMAL","",12,"WEEK 24",168,"TREATMENT","2014-02-08T14:40",170
"CDISCPILOT01","LB","01-701-1148",32,"SPGRAV","Specific Gravity","URINALYSIS","1.026","","1.01","1.034","1.026",1.026,"",1.01,1.034,"NORMAL","Y",1,"SCREENING 1",-7,"SCREENING","2013-08-14T13:04",-9
"CDISCPILOT01","LB","01-701-1148",69,"SPGRAV","Specific Gravity","URINALYSIS","1.016","","1.01","1.034","1.016",1.016,"",1.01,1.034,"NORMAL","",4,"WEEK 2",14,"TREATMENT","2013-09-05T15:43",14
"CDISCPILOT01","LB","01-701-1148",194,"SPGRAV","Specific Gravity","URINALYSIS","1.017","","1.01","1.034","1.017",1.017,"",1.01,1.034,"NORMAL","",9,"WEEK 12",84,"TREATMENT","2013-11-17T10:59",87
"CDISCPILOT01","LB","01-701-1148",289,"SPGRAV","Specific Gravity","URINALYSIS","1.020","","1.01","1.034","1.02",1.02,"",1.01,1.034,"NORMAL","",12,"WEEK 24",168,"TREATMENT","2014-02-08T14:40",170
"CDISCPILOT01","LB","01-701-1148",33,"TSH","Thyrotropin","OTHER","1.81","mIU/L","0.32","5","1.81",1.81,"mU/L",0.32,5,"NORMAL","Y",1,"SCREENING 1",-7,"SCREENING","2013-08-14T13:04",-9
"CDISCPILOT01","LB","01-701-1148",35,"UROBIL","Urobilinogen","URINALYSIS","0","","","","0",0,"",0,0,"NORMAL","Y",1,"SCREENING 1",-7,"SCREENING","2013-08-14T13:04",-9
"CDISCPILOT01","LB","01-701-1148",71,"UROBIL","Urobilinogen","URINALYSIS","0","","","","0",0,"",0,0,"NORMAL","",4,"WEEK 2",14,"TREATMENT","2013-09-05T15:43",14
"CDISCPILOT01","LB","01-701-1148",196,"UROBIL","Urobilinogen","URINALYSIS","0","","","","0",0,"",0,0,"NORMAL","",9,"WEEK 12",84,"TREATMENT","2013-11-17T10:59",87
"CDISCPILOT01","LB","01-701-1148",291,"UROBIL","Urobilinogen","URINALYSIS","0","","","","0",0,"",0,0,"NORMAL","",12,"WEEK 24",168,"TREATMENT","2014-02-08T14:40",170
"CDISCPILOT01","LB","01-701-1148",36,"VITB12","Vitamin B12","OTHER","500","ng/L","200","900","368.9",368.9,"pmol/L",148,664,"NORMAL","Y",1,"SCREENING 1",-7,"SCREENING","2013-08-14T13:04",-9
"CDISCPILOT01","LB","01-701-1153",12,"COLOR","Color","URINALYSIS","N","","","","N",0,"",0,0,"NORMAL","Y",1,"SCREENING 1",-7,"SCREENING","2013-09-06T14:50",-17
"CDISCPILOT01","LB","01-701-1153",49,"COLOR","Color","URINALYSIS","N","","","","N",0,"",0,0,"NORMAL","",4,"WEEK 2",14,"TREATMENT","2013-10-08T11:00",16
"CDISCPILOT01","LB","01-701-1153",103,"COLOR","Color","URINALYSIS","N","","","","N",0,"",0,0,"NORMAL","",5.1,"UNSCHEDULED 5.1",0,"TREATMENT","2013-10-19T12:22",27
"CDISCPILOT01","LB","01-701-1153",179,"COLOR","Color","URINALYSIS","N","","","","N",0,"",0,0,"NORMAL","",9,"WEEK 12",84,"TREATMENT","2013-12-16T15:22",85
"CDISCPILOT01","LB","01-701-1153",203,"COLOR","Color","URINALYSIS","N","","","","N",0,"",0,0,"NORMAL","",9.2,"UNSCHEDULED 9.2",0,"TREATMENT","2013-12-18T06:30",87
"CDISCPILOT01","LB","01-701-1153",208,"COLOR","Color","URINALYSIS","N","","","","N",0,"",0,0,"NORMAL","",9.3,"UNSCHEDULED 9.3",0,"TREATMENT","2014-01-08T11:05",108
"CDISCPILOT01","LB","01-701-1153",284,"COLOR","Color","URINALYSIS","N","","","","N",0,"",0,0,"NORMAL","",12,"WEEK 24",168,"TREATMENT","2014-03-11T11:58",170
"CDISCPILOT01","LB","01-701-1153",20,"KETONES","Ketones","URINALYSIS","0","","","","0",0,"",0,0,"NORMAL","Y",1,"SCREENING 1",-7,"SCREENING","2013-09-06T14:50",-17
"CDISCPILOT01","LB","01-701-1153",57,"KETONES","Ketones","URINALYSIS","0","","","","0",0,"",0,0,"NORMAL","",4,"WEEK 2",14,"TREATMENT","2013-10-08T11:00",16
"CDISCPILOT01","LB","01-701-1153",104,"KETONES","Ketones","URINALYSIS","0","","","","0",0,"",0,0,"NORMAL","",5.1,"UNSCHEDULED 5.1",0,"TREATMENT","2013-10-19T12:22",27
"CDISCPILOT01","LB","01-701-1153",187,"KETONES","Ketones","URINALYSIS","1","","","","1",1,"",0,0,"ABNORMAL","",9,"WEEK 12",84,"TREATMENT","2013-12-16T15:22",85
"CDISCPILOT01","LB","01-701-1153",204,"KETONES","Ketones","URINALYSIS","0","","","","0",0,"",0,0,"NORMAL","",9.2,"UNSCHEDULED 9.2",0,"TREATMENT","2013-12-18T06:30",87
"CDISCPILOT01","LB","01-701-1153",209,"KETONES","Ketones","URINALYSIS","0","","","","0",0,"",0,0,"NORMAL","",9.3,"UNSCHEDULED 9.3",0,"TREATMENT","2014-01-08T11:05",108
"CDISCPILOT01","LB","01-701-1153",292,"KETONES","Ketones","URINALYSIS","0","","","","0",0,"",0,0,"NORMAL","",12,"WEEK 24",168,"TREATMENT","2014-03-11T11:58",170
"CDISCPILOT01","LB","01-701-1153",27,"PH","pH","URINALYSIS","5.0","","5","8","5",5,"",5,8,"NORMAL","Y",1,"SCREENING 1",-7,"SCREENING","2013-09-06T14:50",-17
"CDISCPILOT01","LB","01-701-1153",64,"PH","pH","URINALYSIS","5.0","","5","8","5",5,"",5,8,"NORMAL","",4,"WEEK 2",14,"TREATMENT","2013-10-08T11:00",16
"CDISCPILOT01","LB","01-701-1153",105,"PH","pH","URINALYSIS","5.0","","5","8","5",5,"",5,8,"NORMAL","",5.1,"UNSCHEDULED 5.1",0,"TREATMENT","2013-10-19T12:22",27
"CDISCPILOT01","LB","01-701-1153",194,"PH","pH","URINALYSIS","5.0","","5","8","5",5,"",5,8,"NORMAL","",9,"WEEK 12",84,"TREATMENT","2013-12-16T15:22",85
"CDISCPILOT01","LB","01-701-1153",205,"PH","pH","URINALYSIS","5.0","","5","8","5",5,"",5,8,"NORMAL","",9.2,"UNSCHEDULED 9.2",0,"TREATMENT","2013-12-18T06:30",87
"CDISCPILOT01","LB","01-701-1153",210,"PH","pH","URINALYSIS","7.0","","5","8","7",7,"",5,8,"NORMAL","",9.3,"UNSCHEDULED 9.3",0,"TREATMENT","2014-01-08T11:05",108
"CDISCPILOT01","LB","01-701-1153",299,"PH","pH","URINALYSIS","7.0","","5","8","7",7,"",5,8,"NORMAL","",12,"WEEK 24",168,"TREATMENT","2014-03-11T11:58",170
"CDISCPILOT01","LB","01-701-1153",32,"SPGRAV","Specific Gravity","URINALYSIS","1.003","","1.006","1.03","1.003",1.003,"",1.006,1.03,"LOW","Y",1,"SCREENING 1",-7,"SCREENING","2013-09-06T14:50",-17
"CDISCPILOT01","LB","01-701-1153",69,"SPGRAV","Specific Gravity","URINALYSIS","1.019","","1.006","1.03","1.019",1.019,"",1.006,1.03,"NORMAL","",4,"WEEK 2",14,"TREATMENT","2013-10-08T11:00",16
"CDISCPILOT01","LB","01-701-1153",106,"SPGRAV","Specific Gravity","URINALYSIS","1.019","","1.006","1.03","1.019",1.019,"",1.006,1.03,"NORMAL","",5.1,"UNSCHEDULED 5.1",0,"TREATMENT","2013-10-19T12:22",27
"CDISCPILOT01","LB","01-701-1153",199,"SPGRAV","Specific Gravity","URINALYSIS","1.023","","1.006","1.03","1.023",1.023,"",1.006,1.03,"NORMAL","",9,"WEEK 12",84,"TREATMENT","2013-12-16T15:22",85
"CDISCPILOT01","LB","01-701-1153",206,"SPGRAV","Specific Gravity","URINALYSIS","1.011","","1.006","1.03","1.011",1.011,"",1.006,1.03,"NORMAL","",9.2,"UNSCHEDULED 9.2",0,"TREATMENT","2013-12-18T06:30",87
"CDISCPILOT01","LB","01-701-1153",211,"SPGRAV","Specific Gravity","URINALYSIS","1.012","","1.006","1.03","1.012",1.012,"",1.006,1.03,"NORMAL","",9.3,"UNSCHEDULED 9.3",0,"TREATMENT","2014-01-08T11:05",108
"CDISCPILOT01","LB","01-701-1153",304,"SPGRAV","Specific Gravity","URINALYSIS","1.010","","1.006","1.03","1.01",1.01,"",1.006,1.03,"NORMAL","",12,"WEEK 24",168,"TREATMENT","2014-03-11T11:58",170
"CDISCPILOT01","LB","01-701-1153",33,"TSH","Thyrotropin","OTHER","0.38","mIU/L","0.32","5","0.38",0.38,"mU/L",0.32,5,"NORMAL","Y",1,"SCREENING 1",-7,"SCREENING","2013-09-06T14:50",-17
"CDISCPILOT01","LB","01-701-1153",35,"UROBIL","Urobilinogen","URINALYSIS","0","","","","0",0,"",0,0,"NORMAL","Y",1,"SCREENING 1",-7,"SCREENING","2013-09-06T14:50",-17
"CDISCPILOT01","LB","01-701-1153",71,"UROBIL","Urobilinogen","URINALYSIS","0","","","","0",0,"",0,0,"NORMAL","",4,"WEEK 2",14,"TREATMENT","2013-10-08T11:00",16
"CDISCPILOT01","LB","01-701-1153",107,"UROBIL","Urobilinogen","URINALYSIS","0","","","","0",0,"",0,0,"NORMAL","",5.1,"UNSCHEDULED 5.1",0,"TREATMENT","2013-10-19T12:22",27
"CDISCPILOT01","LB","01-701-1153",201,"UROBIL","Urobilinogen","URINALYSIS","0","","","","0",0,"",0,0,"NORMAL","",9,"WEEK 12",84,"TREATMENT","2013-12-16T15:22",85
"CDISCPILOT01","LB","01-701-1153",207,"UROBIL","Urobilinogen","URINALYSIS","0","","","","0",0,"",0,0,"NORMAL","",9.2,"UNSCHEDULED 9.2",0,"TREATMENT","2013-12-18T06:30",87
"CDISCPILOT01","LB","01-701-1153",212,"UROBIL","Urobilinogen","URINALYSIS","0","","","","0",0,"",0,0,"NORMAL","",9.3,"UNSCHEDULED 9.3",0,"TREATMENT","2014-01-08T11:05",108
"CDISCPILOT01","LB","01-701-1153",306,"UROBIL","Urobilinogen","URINALYSIS","0","","","","0",0,"",0,0,"NORMAL","",12,"WEEK 24",168,"TREATMENT","2014-03-11T11:58",170
"CDISCPILOT01","LB","01-701-1153",36,"VITB12","Vitamin B12","OTHER","345","ng/L","200","900","254.541",254.541,"pmol/L",148,664,"NORMAL","Y",1,"SCREENING 1",-7,"SCREENING","2013-09-06T14:50",-17
"CDISCPILOT01","LB","01-701-1180",12,"COLOR","Color","URINALYSIS","N","","","","N",0,"",0,0,"NORMAL","Y",1,"SCREENING 1",-7,"SCREENING","2013-01-28T11:00",-15
"CDISCPILOT01","LB","01-701-1180",49,"COLOR","Color","URINALYSIS","N","","","","N",0,"",0,0,"NORMAL","",4,"WEEK 2",14,"TREATMENT","2013-02-25T12:10",14
"CDISCPILOT01","LB","01-701-1180",114,"COLOR","Color","URINALYSIS","N","","","","N",0,"",0,0,"NORMAL","",7,"WEEK 6",42,"TREATMENT","2013-03-23T12:45",40
"CDISCPILOT01","LB","01-701-1180",20,"KETONES","Ketones","URINALYSIS","0","","","","0",0,"",0,0,"NORMAL","Y",1,"SCREENING 1",-7,"SCREENING","2013-01-28T11:00",-15
"CDISCPILOT01","LB","01-701-1180",57,"KETONES","Ketones","URINALYSIS","0","","","","0",0,"",0,0,"NORMAL","",4,"WEEK 2",14,"TREATMENT","2013-02-25T12:10",14
"CDISCPILOT01","LB","01-701-1180",122,"KETONES","Ketones","URINALYSIS","0","","","","0",0,"",0,0,"NORMAL","",7,"WEEK 6",42,"TREATMENT","2013-03-23T12:45",40
"CDISCPILOT01","LB","01-701-1180",27,"PH","pH","URINALYSIS","5.0","","5","8","5",5,"",5,8,"NORMAL","Y",1,"SCREENING 1",-7,"SCREENING","2013-01-28T11:00",-15
"CDISCPILOT01","LB","01-701-1180",64,"PH","pH","URINALYSIS","5.0","","5","8","5",5,"",5,8,"NORMAL","",4,"WEEK 2",14,"TREATMENT","2013-02-25T12:10",14
"CDISCPILOT01","LB","01-701-1180",129,"PH","pH","URINALYSIS","6.0","","5","8","6",6,"",5,8,"NORMAL","",7,"WEEK 6",42,"TREATMENT","2013-03-23T12:45",40
"CDISCPILOT01","LB","01-701-1180",32,"SPGRAV","Specific Gravity","URINALYSIS","1.019","","1.01","1.034","1.019",1.019,"",1.01,1.034,"NORMAL","Y",1,"SCREENING 1",-7,"SCREENING","2013-01-28T11:00",-15
"CDISCPILOT01","LB","01-701-1180",69,"SPGRAV","Specific Gravity","URINALYSIS","1.014","","1.01","1.034","1.014",1.014,"",1.01,1.034,"NORMAL","",4,"WEEK 2",14,"TREATMENT","2013-02-25T12:10",14
"CDISCPILOT01","LB","01-701-1180",134,"SPGRAV","Specific Gravity","URINALYSIS","1.020","","1.01","1.034","1.02",1.02,"",1.01,1.034,"NORMAL","",7,"WEEK 6",42,"TREATMENT","2013-03-23T12:45",40
"CDISCPILOT01","LB","01-701-1180",33,"TSH","Thyrotropin","OTHER","4.27","mIU/L","0.32","5","4.27",4.27,"mU/L",0.32,5,"NORMAL","Y",1,"SCREENING 1",-7,"SCREENING","2013-01-28T11:00",-15
"CDISCPILOT01","LB","01-701-1180",35,"UROBIL","Urobilinogen","URINALYSIS","0","","","","0",0,"",0,0,"NORMAL","Y",1,"SCREENING 1",-7,"SCREENING","2013-01-28T11:00",-15
"CDISCPILOT01","LB","01-701-1180",71,"UROBIL","Urobilinogen","URINALYSIS","0","","","","0",0,"",0,0,"NORMAL","",4,"WEEK 2",14,"TREATMENT","2013-02-25T12:10",14
"CDISCPILOT01","LB","01-701-1180",136,"UROBIL","Urobilinogen","URINALYSIS","0","","","","0",0,"",0,0,"NORMAL","",7,"WEEK 6",42,"TREATMENT","2013-03-23T12:45",40
"CDISCPILOT01","LB","01-701-1180",36,"VITB12","Vitamin B12","OTHER","602","ng/L","200","900","444.1556",444.1556,"pmol/L",148,664,"NORMAL","Y",1,"SCREENING 1",-7,"SCREENING","2013-01-28T11:00",-15
"CDISCPILOT01","LB","01-701-1181",12,"COLOR","Color","URINALYSIS","N","","","","N",0,"",0,0,"NORMAL","Y",1,"SCREENING 1",-7,"SCREENING","2013-11-26T13:36",-9
"CDISCPILOT01","LB","01-701-1181",49,"COLOR","Color","URINALYSIS","N","","","","N",0,"",0,0,"NORMAL","",4,"WEEK 2",14,"TREATMENT","2013-12-12T12:09",8
"CDISCPILOT01","LB","01-701-1181",20,"KETONES","Ketones","URINALYSIS","0","","","","0",0,"",0,0,"NORMAL","Y",1,"SCREENING 1",-7,"SCREENING","2013-11-26T13:36",-9
"CDISCPILOT01","LB","01-701-1181",57,"KETONES","Ketones","URINALYSIS","0","","","","0",0,"",0,0,"NORMAL","",4,"WEEK 2",14,"TREATMENT","2013-12-12T12:09",8
"CDISCPILOT01","LB","01-701-1181",27,"PH","pH","URINALYSIS","5.0","","5","8","5",5,"",5,8,"NORMAL","Y",1,"SCREENING 1",-7,"SCREENING","2013-11-26T13:36",-9
"CDISCPILOT01","LB","01-701-1181",64,"PH","pH","URINALYSIS","5.0","","5","8","5",5,"",5,8,"NORMAL","",4,"WEEK 2",14,"TREATMENT","2013-12-12T12:09",8
"CDISCPILOT01","LB","01-701-1181",32,"SPGRAV","Specific Gravity","URINALYSIS","1.016","","1.006","1.03","1.016",1.016,"",1.006,1.03,"NORMAL","Y",1,"SCREENING 1",-7,"SCREENING","2013-11-26T13:36",-9
"CDISCPILOT01","LB","01-701-1181",69,"SPGRAV","Specific Gravity","URINALYSIS","1.011","","1.006","1.03","1.011",1.011,"",1.006,1.03,"NORMAL","",4,"WEEK 2",14,"TREATMENT","2013-12-12T12:09",8
"CDISCPILOT01","LB","01-701-1181",33,"TSH","Thyrotropin","OTHER","1.51","mIU/L","0.32","5","1.51",1.51,"mU/L",0.32,5,"NORMAL","Y",1,"SCREENING 1",-7,"SCREENING","2013-11-26T13:36",-9
"CDISCPILOT01","LB","01-701-1181",35,"UROBIL","Urobilinogen","URINALYSIS","0","","","","0",0,"",0,0,"NORMAL","Y",1,"SCREENING 1",-7,"SCREENING","2013-11-26T13:36",-9
"CDISCPILOT01","LB","01-701-1181",71,"UROBIL","Urobilinogen","URINALYSIS","0","","","","0",0,"",0,0,"NORMAL","",4,"WEEK 2",14,"TREATMENT","2013-12-12T12:09",8
"CDISCPILOT01","LB","01-701-1181",36,"VITB12","Vitamin B12","OTHER","421","ng/L","200","900","310.6138",310.6138,"pmol/L",148,664,"NORMAL","Y",1,"SCREENING 1",-7,"SCREENING","2013-11-26T13:36",-9
"CDISCPILOT01","LB","01-701-1188",12,"COLOR","Color","URINALYSIS","N","","","","N",0,"",0,0,"NORMAL","Y",1,"SCREENING 1",-7,"SCREENING","2013-02-03T12:37",-12
"CDISCPILOT01","LB","01-701-1188",49,"COLOR","Color","URINALYSIS","N","","","","N",0,"",0,0,"NORMAL","",4,"WEEK 2",14,"TREATMENT","2013-03-02T08:31",16
"CDISCPILOT01","LB","01-701-1188",114,"COLOR","Color","URINALYSIS","N","","","","N",0,"",0,0,"NORMAL","",7,"WEEK 6",42,"TREATMENT","2013-03-25T15:08",39
"CDISCPILOT01","LB","01-701-1188",20,"KETONES","Ketones","URINALYSIS","0","","","","0",0,"",0,0,"NORMAL","Y",1,"SCREENING 1",-7,"SCREENING","2013-02-03T12:37",-12
"CDISCPILOT01","LB","01-701-1188",57,"KETONES","Ketones","URINALYSIS","0","","","","0",0,"",0,0,"NORMAL","",4,"WEEK 2",14,"TREATMENT","2013-03-02T08:31",16
"CDISCPILOT01","LB","01-701-1188",122,"KETONES","Ketones","URINALYSIS","0","","","","0",0,"",0,0,"NORMAL","",7,"WEEK 6",42,"TREATMENT","2013-03-25T15:08",39
"CDISCPILOT01","LB","01-701-1188",27,"PH","pH","URINALYSIS","6.0","","5","8","6",6,"",5,8,"NORMAL","Y",1,"SCREENING 1",-7,"SCREENING","2013-02-03T12:37",-12
"CDISCPILOT01","LB","01-701-1188",64,"PH","pH","URINALYSIS","5.0","","5","8","5",5,"",5,8,"NORMAL","",4,"WEEK 2",14,"TREATMENT","2013-03-02T08:31",16
"CDISCPILOT01","LB","01-701-1188",129,"PH","pH","URINALYSIS","5.0","","5","8","5",5,"",5,8,"NORMAL","",7,"WEEK 6",42,"TREATMENT","2013-03-25T15:08",39
"CDISCPILOT01","LB","01-701-1188",32,"SPGRAV","Specific Gravity","URINALYSIS","1.019","","1.006","1.03","1.019",1.019,"",1.006,1.03,"NORMAL","Y",1,"SCREENING 1",-7,"SCREENING","2013-02-03T12:37",-12
"CDISCPILOT01","LB","01-701-1188",69,"SPGRAV","Specific Gravity","URINALYSIS","1.022","","1.006","1.03","1.022",1.022,"",1.006,1.03,"NORMAL","",4,"WEEK 2",14,"TREATMENT","2013-03-02T08:31",16
"CDISCPILOT01","LB","01-701-1188",134,"SPGRAV","Specific Gravity","URINALYSIS","1.022","","1.006","1.03","1.022",1.022,"",1.006,1.03,"NORMAL","",7,"WEEK 6",42,"TREATMENT","2013-03-25T15:08",39
"CDISCPILOT01","LB","01-701-1188",33,"TSH","Thyrotropin","OTHER","1.48","mIU/L","0.32","5","1.48",1.48,"mU/L",0.32,5,"NORMAL","Y",1,"SCREENING 1",-7,"SCREENING","2013-02-03T12:37",-12
"CDISCPILOT01","LB","01-701-1188",35,"UROBIL","Urobilinogen","URINALYSIS","0","","","","0",0,"",0,0,"NORMAL","Y",1,"SCREENING 1",-7,"SCREENING","2013-02-03T12:37",-12
"CDISCPILOT01","LB","01-701-1188",71,"UROBIL","Urobilinogen","URINALYSIS","0","","","","0",0,"",0,0,"NORMAL","",4,"WEEK 2",14,"TREATMENT","2013-03-02T08:31",16
"CDISCPILOT01","LB","01-701-1188",136,"UROBIL","Urobilinogen","URINALYSIS","0","","","","0",0,"",0,0,"NORMAL","",7,"WEEK 6",42,"TREATMENT","2013-03-25T15:08",39
"CDISCPILOT01","LB","01-701-1188",36,"VITB12","Vitamin B12","OTHER","269","ng/L","200","900","198.4682",198.4682,"pmol/L",148,664,"NORMAL","Y",1,"SCREENING 1",-7,"SCREENING","2013-02-03T12:37",-12
"CDISCPILOT01","LB","01-701-1192",12,"COLOR","Color","URINALYSIS","N","","","","N",0,"",0,0,"NORMAL","Y",1,"SCREENING 1",-7,"SCREENING","2012-07-08T15:50",-14
"CDISCPILOT01","LB","01-701-1192",49,"COLOR","Color","URINALYSIS","N","","","","N",0,"",0,0,"NORMAL","",4,"WEEK 2",14,"TREATMENT","2012-08-07T10:31",17
"CDISCPILOT01","LB","01-701-1192",103,"COLOR","Color","URINALYSIS","N","","","","N",0,"",0,0,"NORMAL","",5.1,"UNSCHEDULED 5.1",0,"TREATMENT","2012-08-21T11:00",31
"CDISCPILOT01","LB","01-701-1192",179,"COLOR","Color","URINALYSIS","N","","","","N",0,"",0,0,"NORMAL","",9,"WEEK 12",84,"TREATMENT","2012-10-14T13:12",85
"CDISCPILOT01","LB","01-701-1192",274,"COLOR","Color","URINALYSIS","N","","","","N",0,"",0,0,"NORMAL","",12,"WEEK 24",168,"TREATMENT","2013-01-11T15:37",174
"CDISCPILOT01","LB","01-701-1192",20,"KETONES","Ketones","URINALYSIS","0","","","","0",0,"",0,0,"NORMAL","Y",1,"SCREENING 1",-7,"SCREENING","2012-07-08T15:50",-14
"CDISCPILOT01","LB","01-701-1192",57,"KETONES","Ketones","URINALYSIS","0","","","","0",0,"",0,0,"NORMAL","",4,"WEEK 2",14,"TREATMENT","2012-08-07T10:31",17
"CDISCPILOT01","LB","01-701-1192",104,"KETONES","Ketones","URINALYSIS","0","","","","0",0,"",0,0,"NORMAL","",5.1,"UNSCHEDULED 5.1",0,"TREATMENT","2012-08-21T11:00",31
"CDISCPILOT01","LB","01-701-1192",187,"KETONES","Ketones","URINALYSIS","0","","","","0",0,"",0,0,"NORMAL","",9,"WEEK 12",84,"TREATMENT","2012-10-14T13:12",85
"CDISCPILOT01","LB","01-701-1192",282,"KETONES","Ketones","URINALYSIS","0","","","","0",0,"",0,0,"NORMAL","",12,"WEEK 24",168,"TREATMENT","2013-01-11T15:37",174
"CDISCPILOT01","LB","01-701-1192",27,"PH","pH","URINALYSIS","5.0","","5","8","5",5,"",5,8,"NORMAL","Y",1,"SCREENING 1",-7,"SCREENING","2012-07-08T15:50",-14
"CDISCPILOT01","LB","01-701-1192",64,"PH","pH","URINALYSIS","5.0","","5","8","5",5,"",5,8,"NORMAL","",4,"WEEK 2",14,"TREATMENT","2012-08-07T10:31",17
"CDISCPILOT01","LB","01-701-1192",105,"PH","pH","URINALYSIS","5.0","","5","8","5",5,"",5,8,"NORMAL","",5.1,"UNSCHEDULED 5.1",0,"TREATMENT","2012-08-21T11:00",31
"CDISCPILOT01","LB","01-701-1192",194,"PH","pH","URINALYSIS","5.0","","5","8","5",5,"",5,8,"NORMAL","",9,"WEEK 12",84,"TREATMENT","2012-10-14T13:12",85
"CDISCPILOT01","LB","01-701-1192",289,"PH","pH","URINALYSIS","6.0","","5","8","6",6,"",5,8,"NORMAL","",12,"WEEK 24",168,"TREATMENT","2013-01-11T15:37",174
"CDISCPILOT01","LB","01-701-1192",32,"SPGRAV","Specific Gravity","URINALYSIS","1.022","","1.006","1.03","1.022",1.022,"",1.006,1.03,"NORMAL","Y",1,"SCREENING 1",-7,"SCREENING","2012-07-08T15:50",-14
"CDISCPILOT01","LB","01-701-1192",69,"SPGRAV","Specific Gravity","URINALYSIS","1.026","","1.006","1.03","1.026",1.026,"",1.006,1.03,"NORMAL","",4,"WEEK 2",14,"TREATMENT","2012-08-07T10:31",17
"CDISCPILOT01","LB","01-701-1192",106,"SPGRAV","Specific Gravity","URINALYSIS","1.025","","1.006","1.03","1.025",1.025,"",1.006,1.03,"NORMAL","",5.1,"UNSCHEDULED 5.1",0,"TREATMENT","2012-08-21T11:00",31
"CDISCPILOT01","LB","01-701-1192",199,"SPGRAV","Specific Gravity","URINALYSIS","1.025","","1.006","1.03","1.025",1.025,"",1.006,1.03,"NORMAL","",9,"WEEK 12",84,"TREATMENT","2012-10-14T13:12",85
"CDISCPILOT01","LB","01-701-1192",294,"SPGRAV","Specific Gravity","URINALYSIS","1.019","","1.006","1.03","1.019",1.019,"",1.006,1.03,"NORMAL","",12,"WEEK 24",168,"TREATMENT","2013-01-11T15:37",174
"CDISCPILOT01","LB","01-701-1192",33,"TSH","Thyrotropin","OTHER","0.76","mIU/L","0.32","5","0.76",0.76,"mU/L",0.32,5,"NORMAL","Y",1,"SCREENING 1",-7,"SCREENING","2012-07-08T15:50",-14
"CDISCPILOT01","LB","01-701-1192",35,"UROBIL","Urobilinogen","URINALYSIS","0","","","","0",0,"",0,0,"NORMAL","Y",1,"SCREENING 1",-7,"SCREENING","2012-07-08T15:50",-14
"CDISCPILOT01","LB","01-701-1192",71,"UROBIL","Urobilinogen","URINALYSIS","0","","","","0",0,"",0,0,"NORMAL","",4,"WEEK 2",14,"TREATMENT","2012-08-07T10:31",17
"CDISCPILOT01","LB","01-701-1192",107,"UROBIL","Urobilinogen","URINALYSIS","0","","","","0",0,"",0,0,"NORMAL","",5.1,"UNSCHEDULED 5.1",0,"TREATMENT","2012-08-21T11:00",31
"CDISCPILOT01","LB","01-701-1192",201,"UROBIL","Urobilinogen","URINALYSIS","0","","","","0",0,"",0,0,"NORMAL","",9,"WEEK 12",84,"TREATMENT","2012-10-14T13:12",85
"CDISCPILOT01","LB","01-701-1192",296,"UROBIL","Urobilinogen","URINALYSIS","0","","","","0",0,"",0,0,"NORMAL","",12,"WEEK 24",168,"TREATMENT","2013-01-11T15:37",174
"CDISCPILOT01","LB","01-701-1192",36,"VITB12","Vitamin B12","OTHER","325","ng/L","200","900","239.785",239.785,"pmol/L",148,664,"NORMAL","Y",1,"SCREENING 1",-7,"SCREENING","2012-07-08T15:50",-14
"CDISCPILOT01","LB","01-701-1203",12,"COLOR","Color","URINALYSIS","N","","","","N",0,"",0,0,"NORMAL","Y",1,"SCREENING 1",-7,"SCREENING","2013-01-25T13:50",-8
"CDISCPILOT01","LB","01-701-1203",49,"COLOR","Color","URINALYSIS","N","","","","N",0,"",0,0,"NORMAL","",4,"WEEK 2",14,"TREATMENT","2013-02-23T11:56",22
"CDISCPILOT01","LB","01-701-1203",174,"COLOR","Color","URINALYSIS","N","","","","N",0,"",0,0,"NORMAL","",9,"WEEK 12",84,"TREATMENT","2013-05-09T13:25",97
"CDISCPILOT01","LB","01-701-1203",269,"COLOR","Color","URINALYSIS","N","","","","N",0,"",0,0,"NORMAL","",12,"WEEK 24",168,"TREATMENT","2013-07-22T12:49",171
"CDISCPILOT01","LB","01-701-1203",20,"KETONES","Ketones","URINALYSIS","0","","","","0",0,"",0,0,"NORMAL","Y",1,"SCREENING 1",-7,"SCREENING","2013-01-25T13:50",-8
"CDISCPILOT01","LB","01-701-1203",57,"KETONES","Ketones","URINALYSIS","0","","","","0",0,"",0,0,"NORMAL","",4,"WEEK 2",14,"TREATMENT","2013-02-23T11:56",22
"CDISCPILOT01","LB","01-701-1203",182,"KETONES","Ketones","URINALYSIS","1","","","","1",1,"",0,0,"ABNORMAL","",9,"WEEK 12",84,"TREATMENT","2013-05-09T13:25",97
"CDISCPILOT01","LB","01-701-1203",277,"KETONES","Ketones","URINALYSIS","0","","","","0",0,"",0,0,"NORMAL","",12,"WEEK 24",168,"TREATMENT","2013-07-22T12:49",171
"CDISCPILOT01","LB","01-701-1203",27,"PH","pH","URINALYSIS","5.0","","5","8","5",5,"",5,8,"NORMAL","Y",1,"SCREENING 1",-7,"SCREENING","2013-01-25T13:50",-8
"CDISCPILOT01","LB","01-701-1203",64,"PH","pH","URINALYSIS","5.0","","5","8","5",5,"",5,8,"NORMAL","",4,"WEEK 2",14,"TREATMENT","2013-02-23T11:56",22
"CDISCPILOT01","LB","01-701-1203",189,"PH","pH","URINALYSIS","6.0","","5","8","6",6,"",5,8,"NORMAL","",9,"WEEK 12",84,"TREATMENT","2013-05-09T13:25",97
"CDISCPILOT01","LB","01-701-1203",284,"PH","pH","URINALYSIS","5.0","","5","8","5",5,"",5,8,"NORMAL","",12,"WEEK 24",168,"TREATMENT","2013-07-22T12:49",171
"CDISCPILOT01","LB","01-701-1203",32,"SPGRAV","Specific Gravity","URINALYSIS","1.017","","1.006","1.03","1.017",1.017,"",1.006,1.03,"NORMAL","Y",1,"SCREENING 1",-7,"SCREENING","2013-01-25T13:50",-8
"CDISCPILOT01","LB","01-701-1203",69,"SPGRAV","Specific Gravity","URINALYSIS","1.010","","1.006","1.03","1.01",1.01,"",1.006,1.03,"NORMAL","",4,"WEEK 2",14,"TREATMENT","2013-02-23T11:56",22
"CDISCPILOT01","LB","01-701-1203",194,"SPGRAV","Specific Gravity","URINALYSIS","1.025","","1.006","1.03","1.025",1.025,"",1.006,1.03,"NORMAL","",9,"WEEK 12",84,"TREATMENT","2013-05-09T13:25",97
"CDISCPILOT01","LB","01-701-1203",289,"SPGRAV","Specific Gravity","URINALYSIS","1.018","","1.006","1.03","1.018",1.018,"",1.006,1.03,"NORMAL","",12,"WEEK 24",168,"TREATMENT","2013-07-22T12:49",171
"CDISCPILOT01","LB","01-701-1203",33,"TSH","Thyrotropin","OTHER","4.80","mIU/L","0.32","5","4.8",4.8,"mU/L",0.32,5,"NORMAL","Y",1,"SCREENING 1",-7,"SCREENING","2013-01-25T13:50",-8
"CDISCPILOT01","LB","01-701-1203",35,"UROBIL","Urobilinogen","URINALYSIS","0","","","","0",0,"",0,0,"NORMAL","Y",1,"SCREENING 1",-7,"SCREENING","2013-01-25T13:50",-8
"CDISCPILOT01","LB","01-701-1203",71,"UROBIL","Urobilinogen","URINALYSIS","0","","","","0",0,"",0,0,"NORMAL","",4,"WEEK 2",14,"TREATMENT","2013-02-23T11:56",22
"CDISCPILOT01","LB","01-701-1203",196,"UROBIL","Urobilinogen","URINALYSIS","0","","","","0",0,"",0,0,"NORMAL","",9,"WEEK 12",84,"TREATMENT","2013-05-09T13:25",97
"CDISCPILOT01","LB","01-701-1203",291,"UROBIL","Urobilinogen","URINALYSIS","0","","","","0",0,"",0,0,"NORMAL","",12,"WEEK 24",168,"TREATMENT","2013-07-22T12:49",171
"CDISCPILOT01","LB","01-701-1203",36,"VITB12","Vitamin B12","OTHER","491","ng/L","200","900","362.2598",362.2598,"pmol/L",148,664,"NORMAL","Y",1,"SCREENING 1",-7,"SCREENING","2013-01-25T13:50",-8
"CDISCPILOT01","LB","01-701-1211",12,"COLOR","Color","URINALYSIS","N","","","","N",0,"",0,0,"NORMAL","Y",1,"SCREENING 1",-7,"SCREENING","2012-10-30T14:26",-16
"CDISCPILOT01","LB","01-701-1211",49,"COLOR","Color","URINALYSIS","N","","","","N",0,"",0,0,"NORMAL","",4,"WEEK 2",14,"TREATMENT","2012-11-28T10:00",14
"CDISCPILOT01","LB","01-701-1211",20,"KETONES","Ketones","URINALYSIS","1","","","","1",1,"",0,0,"ABNORMAL","Y",1,"SCREENING 1",-7,"SCREENING","2012-10-30T14:26",-16
"CDISCPILOT01","LB","01-701-1211",57,"KETONES","Ketones","URINALYSIS","0","","","","0",0,"",0,0,"NORMAL","",4,"WEEK 2",14,"TREATMENT","2012-11-28T10:00",14
"CDISCPILOT01","LB","01-701-1211",27,"PH","pH","URINALYSIS","5.0","","5","8","5",5,"",5,8,"NORMAL","Y",1,"SCREENING 1",-7,"SCREENING","2012-10-30T14:26",-16
"CDISCPILOT01","LB","01-701-1211",64,"PH","pH","URINALYSIS","5.0","","5","8","5",5,"",5,8,"NORMAL","",4,"WEEK 2",14,"TREATMENT","2012-11-28T10:00",14
"CDISCPILOT01","LB","01-701-1211",32,"SPGRAV","Specific Gravity","URINALYSIS","1.021","","1.006","1.03","1.021",1.021,"",1.006,1.03,"NORMAL","Y",1,"SCREENING 1",-7,"SCREENING","2012-10-30T14:26",-16
"CDISCPILOT01","LB","01-701-1211",69,"SPGRAV","Specific Gravity","URINALYSIS","1.016","","1.006","1.03","1.016",1.016,"",1.006,1.03,"NORMAL","",4,"WEEK 2",14,"TREATMENT","2012-11-28T10:00",14
"CDISCPILOT01","LB","01-701-1211",33,"TSH","Thyrotropin","OTHER","1.75","mIU/L","0.32","5","1.75",1.75,"mU/L",0.32,5,"NORMAL","Y",1,"SCREENING 1",-7,"SCREENING","2012-10-30T14:26",-16
"CDISCPILOT01","LB","01-701-1211",35,"UROBIL","Urobilinogen","URINALYSIS","0","","","","0",0,"",0,0,"NORMAL","Y",1,"SCREENING 1",-7,"SCREENING","2012-10-30T14:26",-16
"CDISCPILOT01","LB","01-701-1211",71,"UROBIL","Urobilinogen","URINALYSIS","0","","","","0",0,"",0,0,"NORMAL","",4,"WEEK 2",14,"TREATMENT","2012-11-28T10:00",14
"CDISCPILOT01","LB","01-701-1211",36,"VITB12","Vitamin B12","OTHER","427","ng/L","200","900","315.0406",315.0406,"pmol/L",148,664,"NORMAL","Y",1,"SCREENING 1",-7,"SCREENING","2012-10-30T14:26",-16
"CDISCPILOT01","LB","01-701-1234",13,"COLOR","Color","URINALYSIS","N","","","","N",0,"",0,0,"NORMAL","Y",1,"SCREENING 1",-7,"SCREENING","2013-03-20T16:13",-10
"CDISCPILOT01","LB","01-701-1234",50,"COLOR","Color","URINALYSIS","N","","","","N",0,"",0,0,"NORMAL","",4,"WEEK 2",14,"TREATMENT","2013-04-21T08:49",23
"CDISCPILOT01","LB","01-701-1234",175,"COLOR","Color","URINALYSIS","N","","","","N",0,"",0,0,"NORMAL","",9,"WEEK 12",84,"TREATMENT","2013-07-07T11:13",100
"CDISCPILOT01","LB","01-701-1234",270,"COLOR","Color","URINALYSIS","N","","","","N",0,"",0,0,"NORMAL","",12,"WEEK 24",168,"TREATMENT","2013-09-10T13:26",165
"CDISCPILOT01","LB","01-701-1234",21,"KETONES","Ketones","URINALYSIS","0","","","","0",0,"",0,0,"NORMAL","Y",1,"SCREENING 1",-7,"SCREENING","2013-03-20T16:13",-10
"CDISCPILOT01","LB","01-701-1234",58,"KETONES","Ketones","URINALYSIS","0","","","","0",0,"",0,0,"NORMAL","",4,"WEEK 2",14,"TREATMENT","2013-04-21T08:49",23
"CDISCPILOT01","LB","01-701-1234",183,"KETONES","Ketones","URINALYSIS","0","","","","0",0,"",0,0,"NORMAL","",9,"WEEK 12",84,"TREATMENT","2013-07-07T11:13",100
"CDISCPILOT01","LB","01-701-1234",278,"KETONES","Ketones","URINALYSIS","1","","","","1",1,"",0,0,"ABNORMAL","",12,"WEEK 24",168,"TREATMENT","2013-09-10T13:26",165
"CDISCPILOT01","LB","01-701-1234",28,"PH","pH","URINALYSIS","5.0","","5","8","5",5,"",5,8,"NORMAL","Y",1,"SCREENING 1",-7,"SCREENING","2013-03-20T16:13",-10
"CDISCPILOT01","LB","01-701-1234",65,"PH","pH","URINALYSIS","5.0","","5","8","5",5,"",5,8,"NORMAL","",4,"WEEK 2",14,"TREATMENT","2013-04-21T08:49",23
"CDISCPILOT01","LB","01-701-1234",190,"PH","pH","URINALYSIS","7.0","","5","8","7",7,"",5,8,"NORMAL","",9,"WEEK 12",84,"TREATMENT","2013-07-07T11:13",100
"CDISCPILOT01","LB","01-701-1234",285,"PH","pH","URINALYSIS","6.0","","5","8","6",6,"",5,8,"NORMAL","",12,"WEEK 24",168,"TREATMENT","2013-09-10T13:26",165
"CDISCPILOT01","LB","01-701-1234",33,"SPGRAV","Specific Gravity","URINALYSIS","1.028","","1.006","1.03","1.028",1.028,"",1.006,1.03,"NORMAL","Y",1,"SCREENING 1",-7,"SCREENING","2013-03-20T16:13",-10
"CDISCPILOT01","LB","01-701-1234",70,"SPGRAV","Specific Gravity","URINALYSIS","1.020","","1.006","1.03","1.02",1.02,"",1.006,1.03,"NORMAL","",4,"WEEK 2",14,"TREATMENT","2013-04-21T08:49",23
"CDISCPILOT01","LB","01-701-1234",195,"SPGRAV","Specific Gravity","URINALYSIS","1.021","","1.006","1.03","1.021",1.021,"",1.006,1.03,"NORMAL","",9,"WEEK 12",84,"TREATMENT","2013-07-07T11:13",100
"CDISCPILOT01","LB","01-701-1234",290,"SPGRAV","Specific Gravity","URINALYSIS","1.023","","1.006","1.03","1.023",1.023,"",1.006,1.03,"NORMAL","",12,"WEEK 24",168,"TREATMENT","2013-09-10T13:26",165
"CDISCPILOT01","LB","01-701-1234",34,"TSH","Thyrotropin","OTHER","0.66","mIU/L","0.32","5","0.66",0.66,"mU/L",0.32,5,"NORMAL","Y",1,"SCREENING 1",-7,"SCREENING","2013-03-20T16:13",-10
"CDISCPILOT01","LB","01-701-1234",36,"UROBIL","Urobilinogen","URINALYSIS","0","","","","0",0,"",0,0,"NORMAL","Y",1,"SCREENING 1",-7,"SCREENING","2013-03-20T16:13",-10
"CDISCPILOT01","LB","01-701-1234",72,"UROBIL","Urobilinogen","URINALYSIS","0","","","","0",0,"",0,0,"NORMAL","",4,"WEEK 2",14,"TREATMENT","2013-04-21T08:49",23
"CDISCPILOT01","LB","01-701-1234",197,"UROBIL","Urobilinogen","URINALYSIS","0","","","","0",0,"",0,0,"NORMAL","",9,"WEEK 12",84,"TREATMENT","2013-07-07T11:13",100
"CDISCPILOT01","LB","01-701-1234",292,"UROBIL","Urobilinogen","URINALYSIS","0","","","","0",0,"",0,0,"NORMAL","",12,"WEEK 24",168,"TREATMENT","2013-09-10T13:26",165
"CDISCPILOT01","LB","01-701-1234",37,"VITB12","Vitamin B12","OTHER","497","ng/L","200","900","366.6866",366.6866,"pmol/L",148,664,"NORMAL","Y",1,"SCREENING 1",-7,"SCREENING","2013-03-20T16:13",-10
"CDISCPILOT01","LB","01-701-1239",12,"COLOR","Color","URINALYSIS","N","","","","N",0,"",0,0,"NORMAL","Y",1,"SCREENING 1",-7,"SCREENING","2013-12-28T12:44",-14
"CDISCPILOT01","LB","01-701-1239",64,"COLOR","Color","URINALYSIS","N","","","","N",0,"",0,0,"NORMAL","",4,"WEEK 2",14,"TREATMENT","2014-01-25T10:05",15
"CDISCPILOT01","LB","01-701-1239",189,"COLOR","Color","URINALYSIS","N","","","","N",0,"",0,0,"NORMAL","",9,"WEEK 12",84,"TREATMENT","2014-04-02T08:31",82
"CDISCPILOT01","LB","01-701-1239",284,"COLOR","Color","URINALYSIS","N","","","","N",0,"",0,0,"NORMAL","",12,"WEEK 24",168,"TREATMENT","2014-06-27T10:11",168
"CDISCPILOT01","LB","01-701-1239",20,"KETONES","Ketones","URINALYSIS","0","","","","0",0,"",0,0,"NORMAL","Y",1,"SCREENING 1",-7,"SCREENING","2013-12-28T12:44",-14
"CDISCPILOT01","LB","01-701-1239",72,"KETONES","Ketones","URINALYSIS","0","","","","0",0,"",0,0,"NORMAL","",4,"WEEK 2",14,"TREATMENT","2014-01-25T10:05",15
"CDISCPILOT01","LB","01-701-1239",197,"KETONES","Ketones","URINALYSIS","0","","","","0",0,"",0,0,"NORMAL","",9,"WEEK 12",84,"TREATMENT","2014-04-02T08:31",82
"CDISCPILOT01","LB","01-701-1239",292,"KETONES","Ketones","URINALYSIS","0","","","","0",0,"",0,0,"NORMAL","",12,"WEEK 24",168,"TREATMENT","2014-06-27T10:11",168
"CDISCPILOT01","LB","01-701-1239",27,"PH","pH","URINALYSIS","5.0","","5","8","5",5,"",5,8,"NORMAL","Y",1,"SCREENING 1",-7,"SCREENING","2013-12-28T12:44",-14
"CDISCPILOT01","LB","01-701-1239",79,"PH","pH","URINALYSIS","6.0","","5","8","6",6,"",5,8,"NORMAL","",4,"WEEK 2",14,"TREATMENT","2014-01-25T10:05",15
"CDISCPILOT01","LB","01-701-1239",204,"PH","pH","URINALYSIS","5.0","","5","8","5",5,"",5,8,"NORMAL","",9,"WEEK 12",84,"TREATMENT","2014-04-02T08:31",82
"CDISCPILOT01","LB","01-701-1239",299,"PH","pH","URINALYSIS","6.0","","5","8","6",6,"",5,8,"NORMAL","",12,"WEEK 24",168,"TREATMENT","2014-06-27T10:11",168
"CDISCPILOT01","LB","01-701-1239",32,"SPGRAV","Specific Gravity","URINALYSIS","1.018","","1.01","1.034","1.018",1.018,"",1.01,1.034,"NORMAL","Y",1,"SCREENING 1",-7,"SCREENING","2013-12-28T12:44",-14
"CDISCPILOT01","LB","01-701-1239",84,"SPGRAV","Specific Gravity","URINALYSIS","1.030","","1.01","1.034","1.03",1.03,"",1.01,1.034,"NORMAL","",4,"WEEK 2",14,"TREATMENT","2014-01-25T10:05",15
"CDISCPILOT01","LB","01-701-1239",209,"SPGRAV","Specific Gravity","URINALYSIS","1.013","","1.01","1.034","1.013",1.013,"",1.01,1.034,"NORMAL","",9,"WEEK 12",84,"TREATMENT","2014-04-02T08:31",82
"CDISCPILOT01","LB","01-701-1239",304,"SPGRAV","Specific Gravity","URINALYSIS","1.018","","1.01","1.034","1.018",1.018,"",1.01,1.034,"NORMAL","",12,"WEEK 24",168,"TREATMENT","2014-06-27T10:11",168
"CDISCPILOT01","LB","01-701-1239",33,"TSH","Thyrotropin","OTHER","1.42","mIU/L","0.32","5","1.42",1.42,"mU/L",0.32,5,"NORMAL","Y",1,"SCREENING 1",-7,"SCREENING","2013-12-28T12:44",-14
"CDISCPILOT01","LB","01-701-1239",35,"UROBIL","Urobilinogen","URINALYSIS","0","","","","0",0,"",0,0,"NORMAL","Y",1,"SCREENING 1",-7,"SCREENING","2013-12-28T12:44",-14
"CDISCPILOT01","LB","01-701-1239",86,"UROBIL","Urobilinogen","URINALYSIS","0","","","","0",0,"",0,0,"NORMAL","",4,"WEEK 2",14,"TREATMENT","2014-01-25T10:05",15
"CDISCPILOT01","LB","01-701-1239",211,"UROBIL","Urobilinogen","URINALYSIS","0","","","","0",0,"",0,0,"NORMAL","",9,"WEEK 12",84,"TREATMENT","2014-04-02T08:31",82
"CDISCPILOT01","LB","01-701-1239",306,"UROBIL","Urobilinogen","URINALYSIS","0","","","","0",0,"",0,0,"NORMAL","",12,"WEEK 24",168,"TREATMENT","2014-06-27T10:11",168
"CDISCPILOT01","LB","01-701-1239",36,"VITB12","Vitamin B12","OTHER","640","ng/L","200","900","472.192",472.192,"pmol/L",148,664,"NORMAL","Y",1,"SCREENING 1",-7,"SCREENING","2013-12-28T12:44",-14
"CDISCPILOT01","LB","01-701-1275",12,"COLOR","Color","URINALYSIS","N","","","","N",0,"",0,0,"NORMAL","Y",1,"SCREENING 1",-7,"SCREENING","2014-01-25T09:26",-13
"CDISCPILOT01","LB","01-701-1275",49,"COLOR","Color","URINALYSIS","N","","","","N",0,"",0,0,"NORMAL","",4,"WEEK 2",14,"TREATMENT","2014-02-22T08:22",16
"CDISCPILOT01","LB","01-701-1275",173,"COLOR","Color","URINALYSIS","N","","","","N",0,"",0,0,"NORMAL","",9,"WEEK 12",84,"TREATMENT","2014-05-03T08:15",86
"CDISCPILOT01","LB","01-701-1275",206,"COLOR","Color","URINALYSIS","N","","","","N",0,"",0,0,"NORMAL","",10,"WEEK 16",112,"TREATMENT","2014-06-14T12:35",128
"CDISCPILOT01","LB","01-701-1275",20,"KETONES","Ketones","URINALYSIS","0","","","","0",0,"",0,0,"NORMAL","Y",1,"SCREENING 1",-7,"SCREENING","2014-01-25T09:26",-13
"CDISCPILOT01","LB","01-701-1275",57,"KETONES","Ketones","URINALYSIS","0","","","","0",0,"",0,0,"NORMAL","",4,"WEEK 2",14,"TREATMENT","2014-02-22T08:22",16
"CDISCPILOT01","LB","01-701-1275",180,"KETONES","Ketones","URINALYSIS","0","","","","0",0,"",0,0,"NORMAL","",9,"WEEK 12",84,"TREATMENT","2014-05-03T08:15",86
"CDISCPILOT01","LB","01-701-1275",214,"KETONES","Ketones","URINALYSIS","0","","","","0",0,"",0,0,"NORMAL","",10,"WEEK 16",112,"TREATMENT","2014-06-14T12:35",128
"CDISCPILOT01","LB","01-701-1275",27,"PH","pH","URINALYSIS","5.0","","5","8","5",5,"",5,8,"NORMAL","Y",1,"SCREENING 1",-7,"SCREENING","2014-01-25T09:26",-13
"CDISCPILOT01","LB","01-701-1275",64,"PH","pH","URINALYSIS","7.0","","5","8","7",7,"",5,8,"NORMAL","",4,"WEEK 2",14,"TREATMENT","2014-02-22T08:22",16
"CDISCPILOT01","LB","01-701-1275",186,"PH","pH","URINALYSIS","6.0","","5","8","6",6,"",5,8,"NORMAL","",9,"WEEK 12",84,"TREATMENT","2014-05-03T08:15",86
"CDISCPILOT01","LB","01-701-1275",221,"PH","pH","URINALYSIS","6.0","","5","8","6",6,"",5,8,"NORMAL","",10,"WEEK 16",112,"TREATMENT","2014-06-14T12:35",128
"CDISCPILOT01","LB","01-701-1275",32,"SPGRAV","Specific Gravity","URINALYSIS","1.022","","1.006","1.03","1.022",1.022,"",1.006,1.03,"NORMAL","Y",1,"SCREENING 1",-7,"SCREENING","2014-01-25T09:26",-13
"CDISCPILOT01","LB","01-701-1275",69,"SPGRAV","Specific Gravity","URINALYSIS","1.022","","1.006","1.03","1.022",1.022,"",1.006,1.03,"NORMAL","",4,"WEEK 2",14,"TREATMENT","2014-02-22T08:22",16
"CDISCPILOT01","LB","01-701-1275",191,"SPGRAV","Specific Gravity","URINALYSIS","1.021","","1.006","1.03","1.021",1.021,"",1.006,1.03,"NORMAL","",9,"WEEK 12",84,"TREATMENT","2014-05-03T08:15",86
"CDISCPILOT01","LB","01-701-1275",226,"SPGRAV","Specific Gravity","URINALYSIS","1.023","","1.006","1.03","1.023",1.023,"",1.006,1.03,"NORMAL","",10,"WEEK 16",112,"TREATMENT","2014-06-14T12:35",128
"CDISCPILOT01","LB","01-701-1275",33,"TSH","Thyrotropin","OTHER","1.42","mIU/L","0.32","5","1.42",1.42,"mU/L",0.32,5,"NORMAL","Y",1,"SCREENING 1",-7,"SCREENING","2014-01-25T09:26",-13
"CDISCPILOT01","LB","01-701-1275",35,"UROBIL","Urobilinogen","URINALYSIS","0","","","","0",0,"",0,0,"NORMAL","Y",1,"SCREENING 1",-7,"SCREENING","2014-01-25T09:26",-13
"CDISCPILOT01","LB","01-701-1275",71,"UROBIL","Urobilinogen","URINALYSIS","0","","","","0",0,"",0,0,"NORMAL","",4,"WEEK 2",14,"TREATMENT","2014-02-22T08:22",16
"CDISCPILOT01","LB","01-701-1275",193,"UROBIL","Urobilinogen","URINALYSIS","0","","","","0",0,"",0,0,"NORMAL","",9,"WEEK 12",84,"TREATMENT","2014-05-03T08:15",86
"CDISCPILOT01","LB","01-701-1275",228,"UROBIL","Urobilinogen","URINALYSIS","0","","","","0",0,"",0,0,"NORMAL","",10,"WEEK 16",112,"TREATMENT","2014-06-14T12:35",128
"CDISCPILOT01","LB","01-701-1275",36,"VITB12","Vitamin B12","OTHER","271","ng/L","200","900","199.9438",199.9438,"pmol/L",148,664,"NORMAL","Y",1,"SCREENING 1",-7,"SCREENING","2014-01-25T09:26",-13
"CDISCPILOT01","LB","01-701-1287",12,"COLOR","Color","URINALYSIS","N","","","","N",0,"",0,0,"NORMAL","Y",1,"SCREENING 1",-7,"SCREENING","2014-01-17T12:16",-8
"CDISCPILOT01","LB","01-701-1287",49,"COLOR","Color","URINALYSIS","N","","","","N",0,"",0,0,"NORMAL","",4,"WEEK 2",14,"TREATMENT","2014-02-11T10:50",18
"CDISCPILOT01","LB","01-701-1287",174,"COLOR","Color","URINALYSIS","N","","","","N",0,"",0,0,"NORMAL","",9,"WEEK 12",84,"TREATMENT","2014-04-17T14:00",83
"CDISCPILOT01","LB","01-701-1287",270,"COLOR","Color","URINALYSIS","N","","","","N",0,"",0,0,"NORMAL","",12,"WEEK 24",168,"TREATMENT","2014-07-12T14:10",169
"CDISCPILOT01","LB","01-701-1287",20,"KETONES","Ketones","URINALYSIS","0","","","","0",0,"",0,0,"NORMAL","Y",1,"SCREENING 1",-7,"SCREENING","2014-01-17T12:16",-8
"CDISCPILOT01","LB","01-701-1287",57,"KETONES","Ketones","URINALYSIS","0","","","","0",0,"",0,0,"NORMAL","",4,"WEEK 2",14,"TREATMENT","2014-02-11T10:50",18
"CDISCPILOT01","LB","01-701-1287",182,"KETONES","Ketones","URINALYSIS","0","","","","0",0,"",0,0,"NORMAL","",9,"WEEK 12",84,"TREATMENT","2014-04-17T14:00",83
"CDISCPILOT01","LB","01-701-1287",278,"KETONES","Ketones","URINALYSIS","0","","","","0",0,"",0,0,"NORMAL","",12,"WEEK 24",168,"TREATMENT","2014-07-12T14:10",169
"CDISCPILOT01","LB","01-701-1287",27,"PH","pH","URINALYSIS","6.0","","5","8","6",6,"",5,8,"NORMAL","Y",1,"SCREENING 1",-7,"SCREENING","2014-01-17T12:16",-8
"CDISCPILOT01","LB","01-701-1287",64,"PH","pH","URINALYSIS","5.0","","5","8","5",5,"",5,8,"NORMAL","",4,"WEEK 2",14,"TREATMENT","2014-02-11T10:50",18
"CDISCPILOT01","LB","01-701-1287",189,"PH","pH","URINALYSIS","5.0","","5","8","5",5,"",5,8,"NORMAL","",9,"WEEK 12",84,"TREATMENT","2014-04-17T14:00",83
"CDISCPILOT01","LB","01-701-1287",286,"PH","pH","URINALYSIS","7.0","","5","8","7",7,"",5,8,"NORMAL","",12,"WEEK 24",168,"TREATMENT","2014-07-12T14:10",169
"CDISCPILOT01","LB","01-701-1287",32,"SPGRAV","Specific Gravity","URINALYSIS","1.009","","1.01","1.034","1.009",1.009,"",1.01,1.034,"LOW","Y",1,"SCREENING 1",-7,"SCREENING","2014-01-17T12:16",-8
"CDISCPILOT01","LB","01-701-1287",69,"SPGRAV","Specific Gravity","URINALYSIS","1.007","","1.01","1.034","1.007",1.007,"",1.01,1.034,"LOW","",4,"WEEK 2",14,"TREATMENT","2014-02-11T10:50",18
"CDISCPILOT01","LB","01-701-1287",194,"SPGRAV","Specific Gravity","URINALYSIS","1.008","","1.01","1.034","1.008",1.008,"",1.01,1.034,"LOW","",9,"WEEK 12",84,"TREATMENT","2014-04-17T14:00",83
"CDISCPILOT01","LB","01-701-1287",291,"SPGRAV","Specific Gravity","URINALYSIS","1.013","","1.01","1.034","1.013",1.013,"",1.01,1.034,"NORMAL","",12,"WEEK 24",168,"TREATMENT","2014-07-12T14:10",169
"CDISCPILOT01","LB","01-701-1287",33,"TSH","Thyrotropin","OTHER","2.09","mIU/L","0.32","5","2.09",2.09,"mU/L",0.32,5,"NORMAL","Y",1,"SCREENING 1",-7,"SCREENING","2014-01-17T12:16",-8
"CDISCPILOT01","LB","01-701-1287",35,"UROBIL","Urobilinogen","URINALYSIS","0","","","","0",0,"",0,0,"NORMAL","Y",1,"SCREENING 1",-7,"SCREENING","2014-01-17T12:16",-8
"CDISCPILOT01","LB","01-701-1287",71,"UROBIL","Urobilinogen","URINALYSIS","0","","","","0",0,"",0,0,"NORMAL","",4,"WEEK 2",14,"TREATMENT","2014-02-11T10:50",18
"CDISCPILOT01","LB","01-701-1287",196,"UROBIL","Urobilinogen","URINALYSIS","0","","","","0",0,"",0,0,"NORMAL","",9,"WEEK 12",84,"TREATMENT","2014-04-17T14:00",83
"CDISCPILOT01","LB","01-701-1287",293,"UROBIL","Urobilinogen","URINALYSIS","0","","","","0",0,"",0,0,"NORMAL","",12,"WEEK 24",168,"TREATMENT","2014-07-12T14:10",169
"CDISCPILOT01","LB","01-701-1287",36,"VITB12","Vitamin B12","OTHER","446","ng/L","200","900","329.0588",329.0588,"pmol/L",148,664,"NORMAL","Y",1,"SCREENING 1",-7,"SCREENING","2014-01-17T12:16",-8
"CDISCPILOT01","LB","01-701-1294",12,"COLOR","Color","URINALYSIS","N","","","","N",0,"",0,0,"NORMAL","Y",1,"SCREENING 1",-7,"SCREENING","2013-03-17T12:03",-7
"CDISCPILOT01","LB","01-701-1294",49,"COLOR","Color","URINALYSIS","N","","","","N",0,"",0,0,"NORMAL","",4,"WEEK 2",14,"TREATMENT","2013-04-10T08:57",18
"CDISCPILOT01","LB","01-701-1294",174,"COLOR","Color","URINALYSIS","N","","","","N",0,"",0,0,"NORMAL","",9,"WEEK 12",84,"TREATMENT","2013-06-14T09:47",83
"CDISCPILOT01","LB","01-701-1294",20,"KETONES","Ketones","URINALYSIS","0","","","","0",0,"",0,0,"NORMAL","Y",1,"SCREENING 1",-7,"SCREENING","2013-03-17T12:03",-7
"CDISCPILOT01","LB","01-701-1294",57,"KETONES","Ketones","URINALYSIS","0","","","","0",0,"",0,0,"NORMAL","",4,"WEEK 2",14,"TREATMENT","2013-04-10T08:57",18
"CDISCPILOT01","LB","01-701-1294",182,"KETONES","Ketones","URINALYSIS","0","","","","0",0,"",0,0,"NORMAL","",9,"WEEK 12",84,"TREATMENT","2013-06-14T09:47",83
"CDISCPILOT01","LB","01-701-1294",27,"PH","pH","URINALYSIS","5.0","","5","8","5",5,"",5,8,"NORMAL","Y",1,"SCREENING 1",-7,"SCREENING","2013-03-17T12:03",-7
"CDISCPILOT01","LB","01-701-1294",64,"PH","pH","URINALYSIS","5.0","","5","8","5",5,"",5,8,"NORMAL","",4,"WEEK 2",14,"TREATMENT","2013-04-10T08:57",18
"CDISCPILOT01","LB","01-701-1294",189,"PH","pH","URINALYSIS","5.0","","5","8","5",5,"",5,8,"NORMAL","",9,"WEEK 12",84,"TREATMENT","2013-06-14T09:47",83
"CDISCPILOT01","LB","01-701-1294",32,"SPGRAV","Specific Gravity","URINALYSIS","1.018","","1.006","1.03","1.018",1.018,"",1.006,1.03,"NORMAL","Y",1,"SCREENING 1",-7,"SCREENING","2013-03-17T12:03",-7
"CDISCPILOT01","LB","01-701-1294",69,"SPGRAV","Specific Gravity","URINALYSIS","1.018","","1.006","1.03","1.018",1.018,"",1.006,1.03,"NORMAL","",4,"WEEK 2",14,"TREATMENT","2013-04-10T08:57",18
"CDISCPILOT01","LB","01-701-1294",194,"SPGRAV","Specific Gravity","URINALYSIS","1.017","","1.006","1.03","1.017",1.017,"",1.006,1.03,"NORMAL","",9,"WEEK 12",84,"TREATMENT","2013-06-14T09:47",83
"CDISCPILOT01","LB","01-701-1294",33,"TSH","Thyrotropin","OTHER","1.85","mIU/L","0.32","5","1.85",1.85,"mU/L",0.32,5,"NORMAL","Y",1,"SCREENING 1",-7,"SCREENING","2013-03-17T12:03",-7
"CDISCPILOT01","LB","01-701-1294",35,"UROBIL","Urobilinogen","URINALYSIS","0","","","","0",0,"",0,0,"NORMAL","Y",1,"SCREENING 1",-7,"SCREENING","2013-03-17T12:03",-7
"CDISCPILOT01","LB","01-701-1294",71,"UROBIL","Urobilinogen","URINALYSIS","0","","","","0",0,"",0,0,"NORMAL","",4,"WEEK 2",14,"TREATMENT","2013-04-10T08:57",18
"CDISCPILOT01","LB","01-701-1294",196,"UROBIL","Urobilinogen","URINALYSIS","0","","","","0",0,"",0,0,"NORMAL","",9,"WEEK 12",84,"TREATMENT","2013-06-14T09:47",83
"CDISCPILOT01","LB","01-701-1294",36,"VITB12","Vitamin B12","OTHER","366","ng/L","200","900","270.0348",270.0348,"pmol/L",148,664,"NORMAL","Y",1,"SCREENING 1",-7,"SCREENING","2013-03-17T12:03",-7
"CDISCPILOT01","LB","01-701-1302",12,"COLOR","Color","URINALYSIS","N","","","","N",0,"",0,0,"NORMAL","Y",1,"SCREENING 1",-7,"SCREENING","2013-08-20T12:27",-9
"CDISCPILOT01","LB","01-701-1302",49,"COLOR","Color","URINALYSIS","N","","","","N",0,"",0,0,"NORMAL","",4,"WEEK 2",14,"TREATMENT","2013-09-15T12:44",18
"CDISCPILOT01","LB","01-701-1302",174,"COLOR","Color","URINALYSIS","N","","","","N",0,"",0,0,"NORMAL","",9,"WEEK 12",84,"TREATMENT","2013-11-05T13:54",69
"CDISCPILOT01","LB","01-701-1302",20,"KETONES","Ketones","URINALYSIS","0","","","","0",0,"",0,0,"NORMAL","Y",1,"SCREENING 1",-7,"SCREENING","2013-08-20T12:27",-9
"CDISCPILOT01","LB","01-701-1302",57,"KETONES","Ketones","URINALYSIS","0","","","","0",0,"",0,0,"NORMAL","",4,"WEEK 2",14,"TREATMENT","2013-09-15T12:44",18
"CDISCPILOT01","LB","01-701-1302",182,"KETONES","Ketones","URINALYSIS","0","","","","0",0,"",0,0,"NORMAL","",9,"WEEK 12",84,"TREATMENT","2013-11-05T13:54",69
"CDISCPILOT01","LB","01-701-1302",27,"PH","pH","URINALYSIS","5.0","","5","8","5",5,"",5,8,"NORMAL","Y",1,"SCREENING 1",-7,"SCREENING","2013-08-20T12:27",-9
"CDISCPILOT01","LB","01-701-1302",64,"PH","pH","URINALYSIS","5.0","","5","8","5",5,"",5,8,"NORMAL","",4,"WEEK 2",14,"TREATMENT","2013-09-15T12:44",18
"CDISCPILOT01","LB","01-701-1302",189,"PH","pH","URINALYSIS","5.0","","5","8","5",5,"",5,8,"NORMAL","",9,"WEEK 12",84,"TREATMENT","2013-11-05T13:54",69
"CDISCPILOT01","LB","01-701-1302",32,"SPGRAV","Specific Gravity","URINALYSIS","1.021","","1.006","1.03","1.021",1.021,"",1.006,1.03,"NORMAL","Y",1,"SCREENING 1",-7,"SCREENING","2013-08-20T12:27",-9
"CDISCPILOT01","LB","01-701-1302",69,"SPGRAV","Specific Gravity","URINALYSIS","1.021","","1.006","1.03","1.021",1.021,"",1.006,1.03,"NORMAL","",4,"WEEK 2",14,"TREATMENT","2013-09-15T12:44",18
"CDISCPILOT01","LB","01-701-1302",194,"SPGRAV","Specific Gravity","URINALYSIS","1.013","","1.006","1.03","1.013",1.013,"",1.006,1.03,"NORMAL","",9,"WEEK 12",84,"TREATMENT","2013-11-05T13:54",69
"CDISCPILOT01","LB","01-701-1302",33,"TSH","Thyrotropin","OTHER","1.89","mIU/L","0.32","5","1.89",1.89,"mU/L",0.32,5,"NORMAL","Y",1,"SCREENING 1",-7,"SCREENING","2013-08-20T12:27",-9
"CDISCPILOT01","LB","01-701-1302",35,"UROBIL","Urobilinogen","URINALYSIS","0","","","","0",0,"",0,0,"NORMAL","Y",1,"SCREENING 1",-7,"SCREENING","2013-08-20T12:27",-9
"CDISCPILOT01","LB","01-701-1302",71,"UROBIL","Urobilinogen","URINALYSIS","0","","","","0",0,"",0,0,"NORMAL","",4,"WEEK 2",14,"TREATMENT","2013-09-15T12:44",18
"CDISCPILOT01","LB","01-701-1302",196,"UROBIL","Urobilinogen","URINALYSIS","0","","","","0",0,"",0,0,"NORMAL","",9,"WEEK 12",84,"TREATMENT","2013-11-05T13:54",69
"CDISCPILOT01","LB","01-701-1302",36,"VITB12","Vitamin B12","OTHER","714","ng/L","200","900","526.7892",526.7892,"pmol/L",148,664,"NORMAL","Y",1,"SCREENING 1",-7,"SCREENING","2013-08-20T12:27",-9
"CDISCPILOT01","LB","01-701-1317",12,"COLOR","Color","URINALYSIS","N","","","","N",0,"",0,0,"NORMAL","Y",1,"SCREENING 1",-7,"SCREENING","2014-05-13T10:44",-9
"CDISCPILOT01","LB","01-701-1317",49,"COLOR","Color","URINALYSIS","N","","","","N",0,"",0,0,"NORMAL","",1.1,"UNSCHEDULED 1.1",0,"SCREENING","2014-05-10T15:37",-12
"CDISCPILOT01","LB","01-701-1317",80,"COLOR","Color","URINALYSIS","N","","","","N",0,"",0,0,"NORMAL","",4,"WEEK 2",14,"TREATMENT","2014-06-05T08:25",15
"CDISCPILOT01","LB","01-701-1317",205,"COLOR","Color","URINALYSIS","N","","","","N",0,"",0,0,"NORMAL","",9,"WEEK 12",84,"TREATMENT","2014-08-15T14:12",86
"CDISCPILOT01","LB","01-701-1317",300,"COLOR","Color","URINALYSIS","N","","","","N",0,"",0,0,"NORMAL","",12,"WEEK 24",168,"TREATMENT","2014-11-06T13:15",169
"CDISCPILOT01","LB","01-701-1317",20,"KETONES","Ketones","URINALYSIS","0","","","","0",0,"",0,0,"NORMAL","Y",1,"SCREENING 1",-7,"SCREENING","2014-05-13T10:44",-9
"CDISCPILOT01","LB","01-701-1317",54,"KETONES","Ketones","URINALYSIS","0","","","","0",0,"",0,0,"NORMAL","",1.1,"UNSCHEDULED 1.1",0,"SCREENING","2014-05-10T15:37",-12
"CDISCPILOT01","LB","01-701-1317",88,"KETONES","Ketones","URINALYSIS","0","","","","0",0,"",0,0,"NORMAL","",4,"WEEK 2",14,"TREATMENT","2014-06-05T08:25",15
"CDISCPILOT01","LB","01-701-1317",213,"KETONES","Ketones","URINALYSIS","0","","","","0",0,"",0,0,"NORMAL","",9,"WEEK 12",84,"TREATMENT","2014-08-15T14:12",86
"CDISCPILOT01","LB","01-701-1317",308,"KETONES","Ketones","URINALYSIS","0","","","","0",0,"",0,0,"NORMAL","",12,"WEEK 24",168,"TREATMENT","2014-11-06T13:15",169
"CDISCPILOT01","LB","01-701-1317",27,"PH","pH","URINALYSIS","5.0","","5","8","5",5,"",5,8,"NORMAL","Y",1,"SCREENING 1",-7,"SCREENING","2014-05-13T10:44",-9
"CDISCPILOT01","LB","01-701-1317",59,"PH","pH","URINALYSIS","6.0","","5","8","6",6,"",5,8,"NORMAL","",1.1,"UNSCHEDULED 1.1",0,"SCREENING","2014-05-10T15:37",-12
"CDISCPILOT01","LB","01-701-1317",95,"PH","pH","URINALYSIS","5.0","","5","8","5",5,"",5,8,"NORMAL","",4,"WEEK 2",14,"TREATMENT","2014-06-05T08:25",15
"CDISCPILOT01","LB","01-701-1317",220,"PH","pH","URINALYSIS","5.0","","5","8","5",5,"",5,8,"NORMAL","",9,"WEEK 12",84,"TREATMENT","2014-08-15T14:12",86
"CDISCPILOT01","LB","01-701-1317",315,"PH","pH","URINALYSIS","6.0","","5","8","6",6,"",5,8,"NORMAL","",12,"WEEK 24",168,"TREATMENT","2014-11-06T13:15",169
"CDISCPILOT01","LB","01-701-1317",32,"SPGRAV","Specific Gravity","URINALYSIS","1.021","","1.006","1.03","1.021",1.021,"",1.006,1.03,"NORMAL","Y",1,"SCREENING 1",-7,"SCREENING","2014-05-13T10:44",-9
"CDISCPILOT01","LB","01-701-1317",63,"SPGRAV","Specific Gravity","URINALYSIS","1.018","","1.006","1.03","1.018",1.018,"",1.006,1.03,"NORMAL","",1.1,"UNSCHEDULED 1.1",0,"SCREENING","2014-05-10T15:37",-12
"CDISCPILOT01","LB","01-701-1317",100,"SPGRAV","Specific Gravity","URINALYSIS","1.022","","1.006","1.03","1.022",1.022,"",1.006,1.03,"NORMAL","",4,"WEEK 2",14,"TREATMENT","2014-06-05T08:25",15
"CDISCPILOT01","LB","01-701-1317",225,"SPGRAV","Specific Gravity","URINALYSIS","1.027","","1.006","1.03","1.027",1.027,"",1.006,1.03,"NORMAL","",9,"WEEK 12",84,"TREATMENT","2014-08-15T14:12",86
"CDISCPILOT01","LB","01-701-1317",320,"SPGRAV","Specific Gravity","URINALYSIS","1.030","","1.006","1.03","1.03",1.03,"",1.006,1.03,"NORMAL","",12,"WEEK 24",168,"TREATMENT","2014-11-06T13:15",169
"CDISCPILOT01","LB","01-701-1317",33,"TSH","Thyrotropin","OTHER","0.78","mIU/L","0.32","5","0.78",0.78,"mU/L",0.32,5,"NORMAL","Y",1,"SCREENING 1",-7,"SCREENING","2014-05-13T10:44",-9
"CDISCPILOT01","LB","01-701-1317",64,"TSH","Thyrotropin","OTHER","0.86","mIU/L","0.32","5","0.86",0.86,"mU/L",0.32,5,"NORMAL","",1.1,"UNSCHEDULED 1.1",0,"SCREENING","2014-05-10T15:37",-12
"CDISCPILOT01","LB","01-701-1317",35,"UROBIL","Urobilinogen","URINALYSIS","0","","","","0",0,"",0,0,"NORMAL","Y",1,"SCREENING 1",-7,"SCREENING","2014-05-13T10:44",-9
"CDISCPILOT01","LB","01-701-1317",66,"UROBIL","Urobilinogen","URINALYSIS","0","","","","0",0,"",0,0,"NORMAL","",1.1,"UNSCHEDULED 1.1",0,"SCREENING","2014-05-10T15:37",-12
"CDISCPILOT01","LB","01-701-1317",102,"UROBIL","Urobilinogen","URINALYSIS","0","","","","0",0,"",0,0,"NORMAL","",4,"WEEK 2",14,"TREATMENT","2014-06-05T08:25",15
"CDISCPILOT01","LB","01-701-1317",227,"UROBIL","Urobilinogen","URINALYSIS","0","","","","0",0,"",0,0,"NORMAL","",9,"WEEK 12",84,"TREATMENT","2014-08-15T14:12",86
"CDISCPILOT01","LB","01-701-1317",322,"UROBIL","Urobilinogen","URINALYSIS","0","","","","0",0,"",0,0,"NORMAL","",12,"WEEK 24",168,"TREATMENT","2014-11-06T13:15",169
"CDISCPILOT01","LB","01-701-1317",36,"VITB12","Vitamin B12","OTHER","532","ng/L","200","900","392.5096",392.5096,"pmol/L",148,664,"NORMAL","Y",1,"SCREENING 1",-7,"SCREENING","2014-05-13T10:44",-9
"CDISCPILOT01","LB","01-701-1317",67,"VITB12","Vitamin B12","OTHER","821","ng/L","200","900","605.7338",605.7338,"pmol/L",148,664,"NORMAL","",1.1,"UNSCHEDULED 1.1",0,"SCREENING","2014-05-10T15:37",-12
"CDISCPILOT01","LB","01-701-1324",12,"COLOR","Color","URINALYSIS","N","","","","N",0,"",0,0,"NORMAL","Y",1,"SCREENING 1",-7,"SCREENING","2012-09-16T13:35",-16
"CDISCPILOT01","LB","01-701-1324",59,"COLOR","Color","URINALYSIS","N","","","","N",0,"",0,0,"NORMAL","",4.1,"UNSCHEDULED 4.1",0,"TREATMENT","2012-10-25T10:11",24
"CDISCPILOT01","LB","01-701-1324",183,"COLOR","Color","URINALYSIS","N","","","","N",0,"",0,0,"NORMAL","",9,"WEEK 12",84,"TREATMENT","2012-12-25T08:58",85
"CDISCPILOT01","LB","01-701-1324",278,"COLOR","Color","URINALYSIS","N","","","","N",0,"",0,0,"NORMAL","",12,"WEEK 24",168,"TREATMENT","2013-03-19T12:25",169
"CDISCPILOT01","LB","01-701-1324",20,"KETONES","Ketones","URINALYSIS","0","","","","0",0,"",0,0,"NORMAL","Y",1,"SCREENING 1",-7,"SCREENING","2012-09-16T13:35",-16
"CDISCPILOT01","LB","01-701-1324",66,"KETONES","Ketones","URINALYSIS","0","","","","0",0,"",0,0,"NORMAL","",4.1,"UNSCHEDULED 4.1",0,"TREATMENT","2012-10-25T10:11",24
"CDISCPILOT01","LB","01-701-1324",191,"KETONES","Ketones","URINALYSIS","0","","","","0",0,"",0,0,"NORMAL","",9,"WEEK 12",84,"TREATMENT","2012-12-25T08:58",85
"CDISCPILOT01","LB","01-701-1324",286,"KETONES","Ketones","URINALYSIS","0","","","","0",0,"",0,0,"NORMAL","",12,"WEEK 24",168,"TREATMENT","2013-03-19T12:25",169
"CDISCPILOT01","LB","01-701-1324",27,"PH","pH","URINALYSIS","5.0","","5","8","5",5,"",5,8,"NORMAL","Y",1,"SCREENING 1",-7,"SCREENING","2012-09-16T13:35",-16
"CDISCPILOT01","LB","01-701-1324",72,"PH","pH","URINALYSIS","5.0","","5","8","5",5,"",5,8,"NORMAL","",4.1,"UNSCHEDULED 4.1",0,"TREATMENT","2012-10-25T10:11",24
"CDISCPILOT01","LB","01-701-1324",198,"PH","pH","URINALYSIS","5.0","","5","8","5",5,"",5,8,"NORMAL","",9,"WEEK 12",84,"TREATMENT","2012-12-25T08:58",85
"CDISCPILOT01","LB","01-701-1324",293,"PH","pH","URINALYSIS","5.0","","5","8","5",5,"",5,8,"NORMAL","",12,"WEEK 24",168,"TREATMENT","2013-03-19T12:25",169
"CDISCPILOT01","LB","01-701-1324",31,"SPGRAV","Specific Gravity","URINALYSIS","1.010","","1.006","1.03","1.01",1.01,"",1.006,1.03,"NORMAL","Y",1,"SCREENING 1",-7,"SCREENING","2012-09-16T13:35",-16
"CDISCPILOT01","LB","01-701-1324",77,"SPGRAV","Specific Gravity","URINALYSIS","1.023","","1.006","1.03","1.023",1.023,"",1.006,1.03,"NORMAL","",4.1,"UNSCHEDULED 4.1",0,"TREATMENT","2012-10-25T10:11",24
"CDISCPILOT01","LB","01-701-1324",203,"SPGRAV","Specific Gravity","URINALYSIS","1.021","","1.006","1.03","1.021",1.021,"",1.006,1.03,"NORMAL","",9,"WEEK 12",84,"TREATMENT","2012-12-25T08:58",85
"CDISCPILOT01","LB","01-701-1324",298,"SPGRAV","Specific Gravity","URINALYSIS","1.029","","1.006","1.03","1.029",1.029,"",1.006,1.03,"NORMAL","",12,"WEEK 24",168,"TREATMENT","2013-03-19T12:25",169
"CDISCPILOT01","LB","01-701-1324",32,"TSH","Thyrotropin","OTHER","1.31","mIU/L","0.32","5","1.31",1.31,"mU/L",0.32,5,"NORMAL","Y",1,"SCREENING 1",-7,"SCREENING","2012-09-16T13:35",-16
"CDISCPILOT01","LB","01-701-1324",34,"UROBIL","Urobilinogen","URINALYSIS","0","","","","0",0,"",0,0,"NORMAL","Y",1,"SCREENING 1",-7,"SCREENING","2012-09-16T13:35",-16
"CDISCPILOT01","LB","01-701-1324",79,"UROBIL","Urobilinogen","URINALYSIS","0","","","","0",0,"",0,0,"NORMAL","",4.1,"UNSCHEDULED 4.1",0,"TREATMENT","2012-10-25T10:11",24
"CDISCPILOT01","LB","01-701-1324",205,"UROBIL","Urobilinogen","URINALYSIS","0","","","","0",0,"",0,0,"NORMAL","",9,"WEEK 12",84,"TREATMENT","2012-12-25T08:58",85
"CDISCPILOT01","LB","01-701-1324",300,"UROBIL","Urobilinogen","URINALYSIS","0","","","","0",0,"",0,0,"NORMAL","",12,"WEEK 24",168,"TREATMENT","2013-03-19T12:25",169
"CDISCPILOT01","LB","01-701-1324",35,"VITB12","Vitamin B12","OTHER","317","ng/L","200","900","233.8826",233.8826,"pmol/L",148,664,"NORMAL","Y",1,"SCREENING 1",-7,"SCREENING","2012-09-16T13:35",-16
"CDISCPILOT01","LB","01-701-1324",80,"VITB12","Vitamin B12","OTHER","432","ng/L","200","900","318.7296",318.7296,"pmol/L",148,664,"NORMAL","",4.1,"UNSCHEDULED 4.1",0,"TREATMENT","2012-10-25T10:11",24
"CDISCPILOT01","LB","01-701-1341",12,"COLOR","Color","URINALYSIS","N","","","","N",0,"",0,0,"NORMAL","Y",1,"SCREENING 1",-7,"SCREENING","2012-12-22T14:56",-14
"CDISCPILOT01","LB","01-701-1341",65,"COLOR","Color","URINALYSIS","N","","","","N",0,"",0,0,"NORMAL","",4,"WEEK 2",14,"TREATMENT","2013-01-18T12:00",14
"CDISCPILOT01","LB","01-701-1341",100,"COLOR","Color","URINALYSIS","N","","","","N",0,"",0,0,"NORMAL","",5,"WEEK 4",28,"TREATMENT","2013-02-07T15:16",34
"CDISCPILOT01","LB","01-701-1341",20,"KETONES","Ketones","URINALYSIS","0","","","","0",0,"",0,0,"NORMAL","Y",1,"SCREENING 1",-7,"SCREENING","2012-12-22T14:56",-14
"CDISCPILOT01","LB","01-701-1341",73,"KETONES","Ketones","URINALYSIS","0","","","","0",0,"",0,0,"NORMAL","",4,"WEEK 2",14,"TREATMENT","2013-01-18T12:00",14
"CDISCPILOT01","LB","01-701-1341",108,"KETONES","Ketones","URINALYSIS","1","","","","1",1,"",0,0,"ABNORMAL","",5,"WEEK 4",28,"TREATMENT","2013-02-07T15:16",34
"CDISCPILOT01","LB","01-701-1341",27,"PH","pH","URINALYSIS","5.0","","5","8","5",5,"",5,8,"NORMAL","Y",1,"SCREENING 1",-7,"SCREENING","2012-12-22T14:56",-14
"CDISCPILOT01","LB","01-701-1341",80,"PH","pH","URINALYSIS","7.0","","5","8","7",7,"",5,8,"NORMAL","",4,"WEEK 2",14,"TREATMENT","2013-01-18T12:00",14
"CDISCPILOT01","LB","01-701-1341",115,"PH","pH","URINALYSIS","5.0","","5","8","5",5,"",5,8,"NORMAL","",5,"WEEK 4",28,"TREATMENT","2013-02-07T15:16",34
"CDISCPILOT01","LB","01-701-1341",32,"SPGRAV","Specific Gravity","URINALYSIS","1.023","","1.01","1.034","1.023",1.023,"",1.01,1.034,"NORMAL","Y",1,"SCREENING 1",-7,"SCREENING","2012-12-22T14:56",-14
"CDISCPILOT01","LB","01-701-1341",85,"SPGRAV","Specific Gravity","URINALYSIS","1.030","","1.01","1.034","1.03",1.03,"",1.01,1.034,"NORMAL","",4,"WEEK 2",14,"TREATMENT","2013-01-18T12:00",14
"CDISCPILOT01","LB","01-701-1341",120,"SPGRAV","Specific Gravity","URINALYSIS","1.021","","1.01","1.034","1.021",1.021,"",1.01,1.034,"NORMAL","",5,"WEEK 4",28,"TREATMENT","2013-02-07T15:16",34
"CDISCPILOT01","LB","01-701-1341",33,"TSH","Thyrotropin","OTHER","0.22","mIU/L","0.32","5","0.22",0.22,"mU/L",0.32,5,"LOW","Y",1,"SCREENING 1",-7,"SCREENING","2012-12-22T14:56",-14
"CDISCPILOT01","LB","01-701-1341",52,"TSH","Thyrotropin","OTHER","0.51","mIU/L","0.32","5","0.51",0.51,"mU/L",0.32,5,"NORMAL","",1.1,"UNSCHEDULED 1.1",0,"SCREENING","2012-12-26T11:05",-10
"CDISCPILOT01","LB","01-701-1341",35,"UROBIL","Urobilinogen","URINALYSIS","0","","","","0",0,"",0,0,"NORMAL","Y",1,"SCREENING 1",-7,"SCREENING","2012-12-22T14:56",-14
"CDISCPILOT01","LB","01-701-1341",87,"UROBIL","Urobilinogen","URINALYSIS","0","","","","0",0,"",0,0,"NORMAL","",4,"WEEK 2",14,"TREATMENT","2013-01-18T12:00",14
"CDISCPILOT01","LB","01-701-1341",122,"UROBIL","Urobilinogen","URINALYSIS","0","","","","0",0,"",0,0,"NORMAL","",5,"WEEK 4",28,"TREATMENT","2013-02-07T15:16",34
"CDISCPILOT01","LB","01-701-1341",36,"VITB12","Vitamin B12","OTHER","597","ng/L","200","900","440.4666",440.4666,"pmol/L",148,664,"NORMAL","Y",1,"SCREENING 1",-7,"SCREENING","2012-12-22T14:56",-14
"CDISCPILOT01","LB","01-701-1345",12,"COLOR","Color","URINALYSIS","N","","","","N",0,"",0,0,"NORMAL","Y",1,"SCREENING 1",-7,"SCREENING","2013-10-01T12:50",-7
"CDISCPILOT01","LB","01-701-1345",49,"COLOR","Color","URINALYSIS","N","","","","N",0,"",0,0,"NORMAL","",4,"WEEK 2",14,"TREATMENT","2013-10-24T10:41",17
"CDISCPILOT01","LB","01-701-1345",174,"COLOR","Color","URINALYSIS","N","","","","N",0,"",0,0,"NORMAL","",9,"WEEK 12",84,"TREATMENT","2013-12-31T15:07",85
"CDISCPILOT01","LB","01-701-1345",269,"COLOR","Color","URINALYSIS","N","","","","N",0,"",0,0,"NORMAL","",12,"WEEK 24",168,"TREATMENT","2014-03-18T14:12",162
"CDISCPILOT01","LB","01-701-1345",20,"KETONES","Ketones","URINALYSIS","0","","","","0",0,"",0,0,"NORMAL","Y",1,"SCREENING 1",-7,"SCREENING","2013-10-01T12:50",-7
"CDISCPILOT01","LB","01-701-1345",57,"KETONES","Ketones","URINALYSIS","0","","","","0",0,"",0,0,"NORMAL","",4,"WEEK 2",14,"TREATMENT","2013-10-24T10:41",17
"CDISCPILOT01","LB","01-701-1345",182,"KETONES","Ketones","URINALYSIS","0","","","","0",0,"",0,0,"NORMAL","",9,"WEEK 12",84,"TREATMENT","2013-12-31T15:07",85
"CDISCPILOT01","LB","01-701-1345",277,"KETONES","Ketones","URINALYSIS","0","","","","0",0,"",0,0,"NORMAL","",12,"WEEK 24",168,"TREATMENT","2014-03-18T14:12",162
"CDISCPILOT01","LB","01-701-1345",27,"PH","pH","URINALYSIS","5.0","","5","8","5",5,"",5,8,"NORMAL","Y",1,"SCREENING 1",-7,"SCREENING","2013-10-01T12:50",-7
"CDISCPILOT01","LB","01-701-1345",64,"PH","pH","URINALYSIS","5.0","","5","8","5",5,"",5,8,"NORMAL","",4,"WEEK 2",14,"TREATMENT","2013-10-24T10:41",17
"CDISCPILOT01","LB","01-701-1345",189,"PH","pH","URINALYSIS","5.0","","5","8","5",5,"",5,8,"NORMAL","",9,"WEEK 12",84,"TREATMENT","2013-12-31T15:07",85
"CDISCPILOT01","LB","01-701-1345",284,"PH","pH","URINALYSIS","5.0","","5","8","5",5,"",5,8,"NORMAL","",12,"WEEK 24",168,"TREATMENT","2014-03-18T14:12",162
"CDISCPILOT01","LB","01-701-1345",32,"SPGRAV","Specific Gravity","URINALYSIS","1.013","","1.006","1.03","1.013",1.013,"",1.006,1.03,"NORMAL","Y",1,"SCREENING 1",-7,"SCREENING","2013-10-01T12:50",-7
"CDISCPILOT01","LB","01-701-1345",69,"SPGRAV","Specific Gravity","URINALYSIS","1.015","","1.006","1.03","1.015",1.015,"",1.006,1.03,"NORMAL","",4,"WEEK 2",14,"TREATMENT","2013-10-24T10:41",17
"CDISCPILOT01","LB","01-701-1345",194,"SPGRAV","Specific Gravity","URINALYSIS","1.007","","1.006","1.03","1.007",1.007,"",1.006,1.03,"NORMAL","",9,"WEEK 12",84,"TREATMENT","2013-12-31T15:07",85
"CDISCPILOT01","LB","01-701-1345",289,"SPGRAV","Specific Gravity","URINALYSIS","1.007","","1.006","1.03","1.007",1.007,"",1.006,1.03,"NORMAL","",12,"WEEK 24",168,"TREATMENT","2014-03-18T14:12",162
"CDISCPILOT01","LB","01-701-1345",33,"TSH","Thyrotropin","OTHER","0.94","mIU/L","0.32","5","0.94",0.94,"mU/L",0.32,5,"NORMAL","Y",1,"SCREENING 1",-7,"SCREENING","2013-10-01T12:50",-7
"CDISCPILOT01","LB","01-701-1345",35,"UROBIL","Urobilinogen","URINALYSIS","0","","","","0",0,"",0,0,"NORMAL","Y",1,"SCREENING 1",-7,"SCREENING","2013-10-01T12:50",-7
"CDISCPILOT01","LB","01-701-1345",71,"UROBIL","Urobilinogen","URINALYSIS","0","","","","0",0,"",0,0,"NORMAL","",4,"WEEK 2",14,"TREATMENT","2013-10-24T10:41",17
"CDISCPILOT01","LB","01-701-1345",196,"UROBIL","Urobilinogen","URINALYSIS","0","","","","0",0,"",0,0,"NORMAL","",9,"WEEK 12",84,"TREATMENT","2013-12-31T15:07",85
"CDISCPILOT01","LB","01-701-1345",291,"UROBIL","Urobilinogen","URINALYSIS","0","","","","0",0,"",0,0,"NORMAL","",12,"WEEK 24",168,"TREATMENT","2014-03-18T14:12",162
"CDISCPILOT01","LB","01-701-1345",36,"VITB12","Vitamin B12","OTHER","302","ng/L","200","900","222.8156",222.8156,"pmol/L",148,664,"NORMAL","Y",1,"SCREENING 1",-7,"SCREENING","2013-10-01T12:50",-7
"CDISCPILOT01","LB","01-701-1360",12,"COLOR","Color","URINALYSIS","N","","","","N",0,"",0,0,"NORMAL","Y",1,"SCREENING 1",-7,"SCREENING","2013-07-24T11:04",-7
"CDISCPILOT01","LB","01-701-1360",49,"COLOR","Color","URINALYSIS","N","","","","N",0,"",0,0,"NORMAL","",4,"WEEK 2",14,"TREATMENT","2013-08-14T15:17",15
"CDISCPILOT01","LB","01-701-1360",20,"KETONES","Ketones","URINALYSIS","0","","","","0",0,"",0,0,"NORMAL","Y",1,"SCREENING 1",-7,"SCREENING","2013-07-24T11:04",-7
"CDISCPILOT01","LB","01-701-1360",57,"KETONES","Ketones","URINALYSIS","0","","","","0",0,"",0,0,"NORMAL","",4,"WEEK 2",14,"TREATMENT","2013-08-14T15:17",15
"CDISCPILOT01","LB","01-701-1360",27,"PH","pH","URINALYSIS","5.0","","5","8","5",5,"",5,8,"NORMAL","Y",1,"SCREENING 1",-7,"SCREENING","2013-07-24T11:04",-7
"CDISCPILOT01","LB","01-701-1360",64,"PH","pH","URINALYSIS","5.0","","5","8","5",5,"",5,8,"NORMAL","",4,"WEEK 2",14,"TREATMENT","2013-08-14T15:17",15
"CDISCPILOT01","LB","01-701-1360",32,"SPGRAV","Specific Gravity","URINALYSIS","1.014","","1.006","1.03","1.014",1.014,"",1.006,1.03,"NORMAL","Y",1,"SCREENING 1",-7,"SCREENING","2013-07-24T11:04",-7
"CDISCPILOT01","LB","01-701-1360",69,"SPGRAV","Specific Gravity","URINALYSIS","1.022","","1.006","1.03","1.022",1.022,"",1.006,1.03,"NORMAL","",4,"WEEK 2",14,"TREATMENT","2013-08-14T15:17",15
"CDISCPILOT01","LB","01-701-1360",33,"TSH","Thyrotropin","OTHER","1.09","mIU/L","0.32","5","1.09",1.09,"mU/L",0.32,5,"NORMAL","Y",1,"SCREENING 1",-7,"SCREENING","2013-07-24T11:04",-7
"CDISCPILOT01","LB","01-701-1360",35,"UROBIL","Urobilinogen","URINALYSIS","0","","","","0",0,"",0,0,"NORMAL","Y",1,"SCREENING 1",-7,"SCREENING","2013-07-24T11:04",-7
"CDISCPILOT01","LB","01-701-1360",71,"UROBIL","Urobilinogen","URINALYSIS","0","","","","0",0,"",0,0,"NORMAL","",4,"WEEK 2",14,"TREATMENT","2013-08-14T15:17",15
"CDISCPILOT01","LB","01-701-1360",36,"VITB12","Vitamin B12","OTHER","249","ng/L","200","900","183.7122",183.7122,"pmol/L",148,664,"NORMAL","Y",1,"SCREENING 1",-7,"SCREENING","2013-07-24T11:04",-7
"CDISCPILOT01","LB","01-701-1363",12,"COLOR","Color","URINALYSIS","N","","","","N",0,"",0,0,"NORMAL","Y",1,"SCREENING 1",-7,"SCREENING","2013-05-20T13:29",-10
"CDISCPILOT01","LB","01-701-1363",49,"COLOR","Color","URINALYSIS","N","","","","N",0,"",0,0,"NORMAL","",4,"WEEK 2",14,"TREATMENT","2013-06-12T09:57",14
"CDISCPILOT01","LB","01-701-1363",174,"COLOR","Color","URINALYSIS","N","","","","N",0,"",0,0,"NORMAL","",9,"WEEK 12",84,"TREATMENT","2013-08-21T15:17",84
"CDISCPILOT01","LB","01-701-1363",269,"COLOR","Color","URINALYSIS","N","","","","N",0,"",0,0,"NORMAL","",12,"WEEK 24",168,"TREATMENT","2013-11-13T11:55",168
"CDISCPILOT01","LB","01-701-1363",20,"KETONES","Ketones","URINALYSIS","0","","","","0",0,"",0,0,"NORMAL","Y",1,"SCREENING 1",-7,"SCREENING","2013-05-20T13:29",-10
"CDISCPILOT01","LB","01-701-1363",57,"KETONES","Ketones","URINALYSIS","0","","","","0",0,"",0,0,"NORMAL","",4,"WEEK 2",14,"TREATMENT","2013-06-12T09:57",14
"CDISCPILOT01","LB","01-701-1363",182,"KETONES","Ketones","URINALYSIS","0","","","","0",0,"",0,0,"NORMAL","",9,"WEEK 12",84,"TREATMENT","2013-08-21T15:17",84
"CDISCPILOT01","LB","01-701-1363",277,"KETONES","Ketones","URINALYSIS","0","","","","0",0,"",0,0,"NORMAL","",12,"WEEK 24",168,"TREATMENT","2013-11-13T11:55",168
"CDISCPILOT01","LB","01-701-1363",27,"PH","pH","URINALYSIS","5.0","","5","8","5",5,"",5,8,"NORMAL","Y",1,"SCREENING 1",-7,"SCREENING","2013-05-20T13:29",-10
"CDISCPILOT01","LB","01-701-1363",64,"PH","pH","URINALYSIS","5.0","","5","8","5",5,"",5,8,"NORMAL","",4,"WEEK 2",14,"TREATMENT","2013-06-12T09:57",14
"CDISCPILOT01","LB","01-701-1363",189,"PH","pH","URINALYSIS","5.0","","5","8","5",5,"",5,8,"NORMAL","",9,"WEEK 12",84,"TREATMENT","2013-08-21T15:17",84
"CDISCPILOT01","LB","01-701-1363",284,"PH","pH","URINALYSIS","6.0","","5","8","6",6,"",5,8,"NORMAL","",12,"WEEK 24",168,"TREATMENT","2013-11-13T11:55",168
"CDISCPILOT01","LB","01-701-1363",32,"SPGRAV","Specific Gravity","URINALYSIS","1.025","","1.006","1.03","1.025",1.025,"",1.006,1.03,"NORMAL","Y",1,"SCREENING 1",-7,"SCREENING","2013-05-20T13:29",-10
"CDISCPILOT01","LB","01-701-1363",69,"SPGRAV","Specific Gravity","URINALYSIS","1.023","","1.006","1.03","1.023",1.023,"",1.006,1.03,"NORMAL","",4,"WEEK 2",14,"TREATMENT","2013-06-12T09:57",14
"CDISCPILOT01","LB","01-701-1363",194,"SPGRAV","Specific Gravity","URINALYSIS","1.022","","1.006","1.03","1.022",1.022,"",1.006,1.03,"NORMAL","",9,"WEEK 12",84,"TREATMENT","2013-08-21T15:17",84
"CDISCPILOT01","LB","01-701-1363",289,"SPGRAV","Specific Gravity","URINALYSIS","1.022","","1.006","1.03","1.022",1.022,"",1.006,1.03,"NORMAL","",12,"WEEK 24",168,"TREATMENT","2013-11-13T11:55",168
"CDISCPILOT01","LB","01-701-1363",33,"TSH","Thyrotropin","OTHER","1.36","mIU/L","0.32","5","1.36",1.36,"mU/L",0.32,5,"NORMAL","Y",1,"SCREENING 1",-7,"SCREENING","2013-05-20T13:29",-10
"CDISCPILOT01","LB","01-701-1363",35,"UROBIL","Urobilinogen","URINALYSIS","0","","","","0",0,"",0,0,"NORMAL","Y",1,"SCREENING 1",-7,"SCREENING","2013-05-20T13:29",-10
"CDISCPILOT01","LB","01-701-1363",71,"UROBIL","Urobilinogen","URINALYSIS","0","","","","0",0,"",0,0,"NORMAL","",4,"WEEK 2",14,"TREATMENT","2013-06-12T09:57",14
"CDISCPILOT01","LB","01-701-1363",196,"UROBIL","Urobilinogen","URINALYSIS","0","","","","0",0,"",0,0,"NORMAL","",9,"WEEK 12",84,"TREATMENT","2013-08-21T15:17",84
"CDISCPILOT01","LB","01-701-1363",291,"UROBIL","Urobilinogen","URINALYSIS","0","","","","0",0,"",0,0,"NORMAL","",12,"WEEK 24",168,"TREATMENT","2013-11-13T11:55",168
"CDISCPILOT01","LB","01-701-1363",36,"VITB12","Vitamin B12","OTHER","713","ng/L","200","900","526.0514",526.0514,"pmol/L",148,664,"NORMAL","Y",1,"SCREENING 1",-7,"SCREENING","2013-05-20T13:29",-10
"CDISCPILOT01","LB","01-701-1383",12,"COLOR","Color","URINALYSIS","N","","","","N",0,"",0,0,"NORMAL","Y",1,"SCREENING 1",-7,"SCREENING","2013-01-22T11:43",-13
"CDISCPILOT01","LB","01-701-1383",49,"COLOR","Color","URINALYSIS","N","","","","N",0,"",0,0,"NORMAL","",4,"WEEK 2",14,"TREATMENT","2013-02-19T09:40",16
"CDISCPILOT01","LB","01-701-1383",174,"COLOR","Color","URINALYSIS","N","","","","N",0,"",0,0,"NORMAL","",9,"WEEK 12",84,"TREATMENT","2013-04-30T13:14",86
"CDISCPILOT01","LB","01-701-1383",269,"COLOR","Color","URINALYSIS","N","","","","N",0,"",0,0,"NORMAL","",12,"WEEK 24",168,"TREATMENT","2013-07-30T12:32",177
"CDISCPILOT01","LB","01-701-1383",20,"KETONES","Ketones","URINALYSIS","0","","","","0",0,"",0,0,"NORMAL","Y",1,"SCREENING 1",-7,"SCREENING","2013-01-22T11:43",-13
"CDISCPILOT01","LB","01-701-1383",57,"KETONES","Ketones","URINALYSIS","0","","","","0",0,"",0,0,"NORMAL","",4,"WEEK 2",14,"TREATMENT","2013-02-19T09:40",16
"CDISCPILOT01","LB","01-701-1383",182,"KETONES","Ketones","URINALYSIS","0","","","","0",0,"",0,0,"NORMAL","",9,"WEEK 12",84,"TREATMENT","2013-04-30T13:14",86
"CDISCPILOT01","LB","01-701-1383",277,"KETONES","Ketones","URINALYSIS","0","","","","0",0,"",0,0,"NORMAL","",12,"WEEK 24",168,"TREATMENT","2013-07-30T12:32",177
"CDISCPILOT01","LB","01-701-1383",27,"PH","pH","URINALYSIS","6.0","","5","8","6",6,"",5,8,"NORMAL","Y",1,"SCREENING 1",-7,"SCREENING","2013-01-22T11:43",-13
"CDISCPILOT01","LB","01-701-1383",64,"PH","pH","URINALYSIS","6.0","","5","8","6",6,"",5,8,"NORMAL","",4,"WEEK 2",14,"TREATMENT","2013-02-19T09:40",16
"CDISCPILOT01","LB","01-701-1383",189,"PH","pH","URINALYSIS","5.0","","5","8","5",5,"",5,8,"NORMAL","",9,"WEEK 12",84,"TREATMENT","2013-04-30T13:14",86
"CDISCPILOT01","LB","01-701-1383",284,"PH","pH","URINALYSIS","7.0","","5","8","7",7,"",5,8,"NORMAL","",12,"WEEK 24",168,"TREATMENT","2013-07-30T12:32",177
"CDISCPILOT01","LB","01-701-1383",32,"SPGRAV","Specific Gravity","URINALYSIS","1.011","","1.006","1.03","1.011",1.011,"",1.006,1.03,"NORMAL","Y",1,"SCREENING 1",-7,"SCREENING","2013-01-22T11:43",-13
"CDISCPILOT01","LB","01-701-1383",69,"SPGRAV","Specific Gravity","URINALYSIS","1.016","","1.006","1.03","1.016",1.016,"",1.006,1.03,"NORMAL","",4,"WEEK 2",14,"TREATMENT","2013-02-19T09:40",16
"CDISCPILOT01","LB","01-701-1383",194,"SPGRAV","Specific Gravity","URINALYSIS","1.022","","1.006","1.03","1.022",1.022,"",1.006,1.03,"NORMAL","",9,"WEEK 12",84,"TREATMENT","2013-04-30T13:14",86
"CDISCPILOT01","LB","01-701-1383",289,"SPGRAV","Specific Gravity","URINALYSIS","1.017","","1.006","1.03","1.017",1.017,"",1.006,1.03,"NORMAL","",12,"WEEK 24",168,"TREATMENT","2013-07-30T12:32",177
"CDISCPILOT01","LB","01-701-1383",33,"TSH","Thyrotropin","OTHER","3.66","mIU/L","0.32","5","3.66",3.66,"mU/L",0.32,5,"NORMAL","Y",1,"SCREENING 1",-7,"SCREENING","2013-01-22T11:43",-13
"CDISCPILOT01","LB","01-701-1383",35,"UROBIL","Urobilinogen","URINALYSIS","0","","","","0",0,"",0,0,"NORMAL","Y",1,"SCREENING 1",-7,"SCREENING","2013-01-22T11:43",-13
"CDISCPILOT01","LB","01-701-1383",71,"UROBIL","Urobilinogen","URINALYSIS","0","","","","0",0,"",0,0,"NORMAL","",4,"WEEK 2",14,"TREATMENT","2013-02-19T09:40",16
"CDISCPILOT01","LB","01-701-1383",196,"UROBIL","Urobilinogen","URINALYSIS","0","","","","0",0,"",0,0,"NORMAL","",9,"WEEK 12",84,"TREATMENT","2013-04-30T13:14",86
"CDISCPILOT01","LB","01-701-1383",291,"UROBIL","Urobilinogen","URINALYSIS","0","","","","0",0,"",0,0,"NORMAL","",12,"WEEK 24",168,"TREATMENT","2013-07-30T12:32",177
"CDISCPILOT01","LB","01-701-1383",36,"VITB12","Vitamin B12","OTHER","555","ng/L","200","900","409.479",409.479,"pmol/L",148,664,"NORMAL","Y",1,"SCREENING 1",-7,"SCREENING","2013-01-22T11:43",-13
"CDISCPILOT01","LB","01-701-1387",12,"COLOR","Color","URINALYSIS","N","","","","N",0,"",0,0,"NORMAL","Y",1,"SCREENING 1",-7,"SCREENING","2014-02-23T13:20",-17
"CDISCPILOT01","LB","01-701-1387",49,"COLOR","Color","URINALYSIS","N","","","","N",0,"",0,0,"NORMAL","",4,"WEEK 2",14,"TREATMENT","2014-03-25T10:40",14
"CDISCPILOT01","LB","01-701-1387",20,"KETONES","Ketones","URINALYSIS","0","","","","0",0,"",0,0,"NORMAL","Y",1,"SCREENING 1",-7,"SCREENING","2014-02-23T13:20",-17
"CDISCPILOT01","LB","01-701-1387",57,"KETONES","Ketones","URINALYSIS","0","","","","0",0,"",0,0,"NORMAL","",4,"WEEK 2",14,"TREATMENT","2014-03-25T10:40",14
"CDISCPILOT01","LB","01-701-1387",27,"PH","pH","URINALYSIS","5.0","","5","8","5",5,"",5,8,"NORMAL","Y",1,"SCREENING 1",-7,"SCREENING","2014-02-23T13:20",-17
"CDISCPILOT01","LB","01-701-1387",64,"PH","pH","URINALYSIS","5.0","","5","8","5",5,"",5,8,"NORMAL","",4,"WEEK 2",14,"TREATMENT","2014-03-25T10:40",14
"CDISCPILOT01","LB","01-701-1387",32,"SPGRAV","Specific Gravity","URINALYSIS","1.026","","1.006","1.03","1.026",1.026,"",1.006,1.03,"NORMAL","Y",1,"SCREENING 1",-7,"SCREENING","2014-02-23T13:20",-17
"CDISCPILOT01","LB","01-701-1387",69,"SPGRAV","Specific Gravity","URINALYSIS","1.017","","1.006","1.03","1.017",1.017,"",1.006,1.03,"NORMAL","",4,"WEEK 2",14,"TREATMENT","2014-03-25T10:40",14
"CDISCPILOT01","LB","01-701-1387",33,"TSH","Thyrotropin","OTHER","0.93","mIU/L","0.32","5","0.93",0.93,"mU/L",0.32,5,"NORMAL","Y",1,"SCREENING 1",-7,"SCREENING","2014-02-23T13:20",-17
"CDISCPILOT01","LB","01-701-1387",35,"UROBIL","Urobilinogen","URINALYSIS","0","","","","0",0,"",0,0,"NORMAL","Y",1,"SCREENING 1",-7,"SCREENING","2014-02-23T13:20",-17
"CDISCPILOT01","LB","01-701-1387",71,"UROBIL","Urobilinogen","URINALYSIS","0","","","","0",0,"",0,0,"NORMAL","",4,"WEEK 2",14,"TREATMENT","2014-03-25T10:40",14
"CDISCPILOT01","LB","01-701-1387",36,"VITB12","Vitamin B12","OTHER","370","ng/L","200","900","272.986",272.986,"pmol/L",148,664,"NORMAL","Y",1,"SCREENING 1",-7,"SCREENING","2014-02-23T13:20",-17
"CDISCPILOT01","LB","01-701-1392",12,"COLOR","Color","URINALYSIS","N","","","","N",0,"",0,0,"NORMAL","Y",1,"SCREENING 1",-7,"SCREENING","2012-10-17T12:13",-11
"CDISCPILOT01","LB","01-701-1392",49,"COLOR","Color","URINALYSIS","N","","","","N",0,"",0,0,"NORMAL","",4,"WEEK 2",14,"TREATMENT","2012-11-11T15:35",15
"CDISCPILOT01","LB","01-701-1392",174,"COLOR","Color","URINALYSIS","N","","","","N",0,"",0,0,"NORMAL","",9,"WEEK 12",84,"TREATMENT","2013-01-20T14:39",85
"CDISCPILOT01","LB","01-701-1392",269,"COLOR","Color","URINALYSIS","N","","","","N",0,"",0,0,"NORMAL","",12,"WEEK 24",168,"TREATMENT","2013-04-15T10:53",170
"CDISCPILOT01","LB","01-701-1392",20,"KETONES","Ketones","URINALYSIS","0","","","","0",0,"",0,0,"NORMAL","Y",1,"SCREENING 1",-7,"SCREENING","2012-10-17T12:13",-11
"CDISCPILOT01","LB","01-701-1392",57,"KETONES","Ketones","URINALYSIS","0","","","","0",0,"",0,0,"NORMAL","",4,"WEEK 2",14,"TREATMENT","2012-11-11T15:35",15
"CDISCPILOT01","LB","01-701-1392",182,"KETONES","Ketones","URINALYSIS","0","","","","0",0,"",0,0,"NORMAL","",9,"WEEK 12",84,"TREATMENT","2013-01-20T14:39",85
"CDISCPILOT01","LB","01-701-1392",277,"KETONES","Ketones","URINALYSIS","0","","","","0",0,"",0,0,"NORMAL","",12,"WEEK 24",168,"TREATMENT","2013-04-15T10:53",170
"CDISCPILOT01","LB","01-701-1392",27,"PH","pH","URINALYSIS","5.0","","5","8","5",5,"",5,8,"NORMAL","Y",1,"SCREENING 1",-7,"SCREENING","2012-10-17T12:13",-11
"CDISCPILOT01","LB","01-701-1392",64,"PH","pH","URINALYSIS","5.0","","5","8","5",5,"",5,8,"NORMAL","",4,"WEEK 2",14,"TREATMENT","2012-11-11T15:35",15
"CDISCPILOT01","LB","01-701-1392",189,"PH","pH","URINALYSIS","5.0","","5","8","5",5,"",5,8,"NORMAL","",9,"WEEK 12",84,"TREATMENT","2013-01-20T14:39",85
"CDISCPILOT01","LB","01-701-1392",284,"PH","pH","URINALYSIS","6.0","","5","8","6",6,"",5,8,"NORMAL","",12,"WEEK 24",168,"TREATMENT","2013-04-15T10:53",170
"CDISCPILOT01","LB","01-701-1392",32,"SPGRAV","Specific Gravity","URINALYSIS","1.019","","1.006","1.03","1.019",1.019,"",1.006,1.03,"NORMAL","Y",1,"SCREENING 1",-7,"SCREENING","2012-10-17T12:13",-11
"CDISCPILOT01","LB","01-701-1392",69,"SPGRAV","Specific Gravity","URINALYSIS","1.020","","1.006","1.03","1.02",1.02,"",1.006,1.03,"NORMAL","",4,"WEEK 2",14,"TREATMENT","2012-11-11T15:35",15
"CDISCPILOT01","LB","01-701-1392",194,"SPGRAV","Specific Gravity","URINALYSIS","1.023","","1.006","1.03","1.023",1.023,"",1.006,1.03,"NORMAL","",9,"WEEK 12",84,"TREATMENT","2013-01-20T14:39",85
"CDISCPILOT01","LB","01-701-1392",289,"SPGRAV","Specific Gravity","URINALYSIS","1.021","","1.006","1.03","1.021",1.021,"",1.006,1.03,"NORMAL","",12,"WEEK 24",168,"TREATMENT","2013-04-15T10:53",170
"CDISCPILOT01","LB","01-701-1392",33,"TSH","Thyrotropin","OTHER","1.34","mIU/L","0.32","5","1.34",1.34,"mU/L",0.32,5,"NORMAL","Y",1,"SCREENING 1",-7,"SCREENING","2012-10-17T12:13",-11
"CDISCPILOT01","LB","01-701-1392",35,"UROBIL","Urobilinogen","URINALYSIS","0","","","","0",0,"",0,0,"NORMAL","Y",1,"SCREENING 1",-7,"SCREENING","2012-10-17T12:13",-11
"CDISCPILOT01","LB","01-701-1392",71,"UROBIL","Urobilinogen","URINALYSIS","0","","","","0",0,"",0,0,"NORMAL","",4,"WEEK 2",14,"TREATMENT","2012-11-11T15:35",15
"CDISCPILOT01","LB","01-701-1392",196,"UROBIL","Urobilinogen","URINALYSIS","0","","","","0",0,"",0,0,"NORMAL","",9,"WEEK 12",84,"TREATMENT","2013-01-20T14:39",85
"CDISCPILOT01","LB","01-701-1392",291,"UROBIL","Urobilinogen","URINALYSIS","0","","","","0",0,"",0,0,"NORMAL","",12,"WEEK 24",168,"TREATMENT","2013-04-15T10:53",170
"CDISCPILOT01","LB","01-701-1392",36,"VITB12","Vitamin B12","OTHER","662","ng/L","200","900","488.4236",488.4236,"pmol/L",148,664,"NORMAL","Y",1,"SCREENING 1",-7,"SCREENING","2012-10-17T12:13",-11
"CDISCPILOT01","LB","01-701-1415",12,"COLOR","Color","URINALYSIS","N","","","","N",0,"",0,0,"NORMAL","Y",1,"SCREENING 1",-7,"SCREENING","2013-09-15T14:05",-8
"CDISCPILOT01","LB","01-701-1415",38,"COLOR","Color","URINALYSIS","N","","","","N",0,"",0,0,"NORMAL","",1.1,"UNSCHEDULED 1.1",0,"SCREENING","2013-09-21T12:35",-2
"CDISCPILOT01","LB","01-701-1415",54,"COLOR","Color","URINALYSIS","N","","","","N",0,"",0,0,"NORMAL","",4,"WEEK 2",14,"TREATMENT","2013-10-07T12:25",15
"CDISCPILOT01","LB","01-701-1415",181,"COLOR","Color","URINALYSIS","N","","","","N",0,"",0,0,"NORMAL","",9,"WEEK 12",84,"TREATMENT","2013-12-21T15:25",90
"CDISCPILOT01","LB","01-701-1415",275,"COLOR","Color","URINALYSIS","N","","","","N",0,"",0,0,"NORMAL","",12,"WEEK 24",168,"TREATMENT","2014-03-10T12:30",169
"CDISCPILOT01","LB","01-701-1415",20,"KETONES","Ketones","URINALYSIS","1","","","","1",1,"",0,0,"ABNORMAL","Y",1,"SCREENING 1",-7,"SCREENING","2013-09-15T14:05",-8
"CDISCPILOT01","LB","01-701-1415",39,"KETONES","Ketones","URINALYSIS","0","","","","0",0,"",0,0,"NORMAL","",1.1,"UNSCHEDULED 1.1",0,"SCREENING","2013-09-21T12:35",-2
"CDISCPILOT01","LB","01-701-1415",62,"KETONES","Ketones","URINALYSIS","0","","","","0",0,"",0,0,"NORMAL","",4,"WEEK 2",14,"TREATMENT","2013-10-07T12:25",15
"CDISCPILOT01","LB","01-701-1415",189,"KETONES","Ketones","URINALYSIS","0","","","","0",0,"",0,0,"NORMAL","",9,"WEEK 12",84,"TREATMENT","2013-12-21T15:25",90
"CDISCPILOT01","LB","01-701-1415",283,"KETONES","Ketones","URINALYSIS","0","","","","0",0,"",0,0,"NORMAL","",12,"WEEK 24",168,"TREATMENT","2014-03-10T12:30",169
"CDISCPILOT01","LB","01-701-1415",27,"PH","pH","URINALYSIS","5.0","","5","8","5",5,"",5,8,"NORMAL","Y",1,"SCREENING 1",-7,"SCREENING","2013-09-15T14:05",-8
"CDISCPILOT01","LB","01-701-1415",40,"PH","pH","URINALYSIS","6.0","","5","8","6",6,"",5,8,"NORMAL","",1.1,"UNSCHEDULED 1.1",0,"SCREENING","2013-09-21T12:35",-2
"CDISCPILOT01","LB","01-701-1415",69,"PH","pH","URINALYSIS","5.0","","5","8","5",5,"",5,8,"NORMAL","",4,"WEEK 2",14,"TREATMENT","2013-10-07T12:25",15
"CDISCPILOT01","LB","01-701-1415",196,"PH","pH","URINALYSIS","5.0","","5","8","5",5,"",5,8,"NORMAL","",9,"WEEK 12",84,"TREATMENT","2013-12-21T15:25",90
"CDISCPILOT01","LB","01-701-1415",290,"PH","pH","URINALYSIS","5.0","","5","8","5",5,"",5,8,"NORMAL","",12,"WEEK 24",168,"TREATMENT","2014-03-10T12:30",169
"CDISCPILOT01","LB","01-701-1415",32,"SPGRAV","Specific Gravity","URINALYSIS","1.018","","1.006","1.03","1.018",1.018,"",1.006,1.03,"NORMAL","Y",1,"SCREENING 1",-7,"SCREENING","2013-09-15T14:05",-8
"CDISCPILOT01","LB","01-701-1415",41,"SPGRAV","Specific Gravity","URINALYSIS","1.023","","1.006","1.03","1.023",1.023,"",1.006,1.03,"NORMAL","",1.1,"UNSCHEDULED 1.1",0,"SCREENING","2013-09-21T12:35",-2
"CDISCPILOT01","LB","01-701-1415",74,"SPGRAV","Specific Gravity","URINALYSIS","1.022","","1.006","1.03","1.022",1.022,"",1.006,1.03,"NORMAL","",4,"WEEK 2",14,"TREATMENT","2013-10-07T12:25",15
"CDISCPILOT01","LB","01-701-1415",200,"SPGRAV","Specific Gravity","URINALYSIS","1.022","","1.006","1.03","1.022",1.022,"",1.006,1.03,"NORMAL","",9,"WEEK 12",84,"TREATMENT","2013-12-21T15:25",90
"CDISCPILOT01","LB","01-701-1415",295,"SPGRAV","Specific Gravity","URINALYSIS","1.020","","1.006","1.03","1.02",1.02,"",1.006,1.03,"NORMAL","",12,"WEEK 24",168,"TREATMENT","2014-03-10T12:30",169
"CDISCPILOT01","LB","01-701-1415",33,"TSH","Thyrotropin","OTHER","1.01","mIU/L","0.32","5","1.01",1.01,"mU/L",0.32,5,"NORMAL","Y",1,"SCREENING 1",-7,"SCREENING","2013-09-15T14:05",-8
"CDISCPILOT01","LB","01-701-1415",35,"UROBIL","Urobilinogen","URINALYSIS","0","","","","0",0,"",0,0,"NORMAL","Y",1,"SCREENING 1",-7,"SCREENING","2013-09-15T14:05",-8
"CDISCPILOT01","LB","01-701-1415",42,"UROBIL","Urobilinogen","URINALYSIS","0","","","","0",0,"",0,0,"NORMAL","",1.1,"UNSCHEDULED 1.1",0,"SCREENING","2013-09-21T12:35",-2
"CDISCPILOT01","LB","01-701-1415",76,"UROBIL","Urobilinogen","URINALYSIS","0","","","","0",0,"",0,0,"NORMAL","",4,"WEEK 2",14,"TREATMENT","2013-10-07T12:25",15
"CDISCPILOT01","LB","01-701-1415",202,"UROBIL","Urobilinogen","URINALYSIS","0","","","","0",0,"",0,0,"NORMAL","",9,"WEEK 12",84,"TREATMENT","2013-12-21T15:25",90
"CDISCPILOT01","LB","01-701-1415",297,"UROBIL","Urobilinogen","URINALYSIS","0","","","","0",0,"",0,0,"NORMAL","",12,"WEEK 24",168,"TREATMENT","2014-03-10T12:30",169
"CDISCPILOT01","LB","01-701-1415",36,"VITB12","Vitamin B12","OTHER","387","ng/L","200","900","285.5286",285.5286,"pmol/L",148,664,"NORMAL","Y",1,"SCREENING 1",-7,"SCREENING","2013-09-15T14:05",-8
"CDISCPILOT01","LB","01-701-1429",12,"COLOR","Color","URINALYSIS","N","","","","N",0,"",0,0,"NORMAL","Y",1,"SCREENING 1",-7,"SCREENING","2013-02-21T16:20",-26
"CDISCPILOT01","LB","01-701-1429",49,"COLOR","Color","URINALYSIS","N","","","","N",0,"",0,0,"NORMAL","",4,"WEEK 2",14,"TREATMENT","2013-04-02T12:41",15
"CDISCPILOT01","LB","01-701-1429",114,"COLOR","Color","URINALYSIS","N","","","","N",0,"",0,0,"NORMAL","",7,"WEEK 6",42,"TREATMENT","2013-04-30T12:22",43
"CDISCPILOT01","LB","01-701-1429",20,"KETONES","Ketones","URINALYSIS","0","","","","0",0,"",0,0,"NORMAL","Y",1,"SCREENING 1",-7,"SCREENING","2013-02-21T16:20",-26
"CDISCPILOT01","LB","01-701-1429",57,"KETONES","Ketones","URINALYSIS","0","","","","0",0,"",0,0,"NORMAL","",4,"WEEK 2",14,"TREATMENT","2013-04-02T12:41",15
"CDISCPILOT01","LB","01-701-1429",122,"KETONES","Ketones","URINALYSIS","0","","","","0",0,"",0,0,"NORMAL","",7,"WEEK 6",42,"TREATMENT","2013-04-30T12:22",43
"CDISCPILOT01","LB","01-701-1429",27,"PH","pH","URINALYSIS","6.0","","5","8","6",6,"",5,8,"NORMAL","Y",1,"SCREENING 1",-7,"SCREENING","2013-02-21T16:20",-26
"CDISCPILOT01","LB","01-701-1429",64,"PH","pH","URINALYSIS","5.0","","5","8","5",5,"",5,8,"NORMAL","",4,"WEEK 2",14,"TREATMENT","2013-04-02T12:41",15
"CDISCPILOT01","LB","01-701-1429",129,"PH","pH","URINALYSIS","6.0","","5","8","6",6,"",5,8,"NORMAL","",7,"WEEK 6",42,"TREATMENT","2013-04-30T12:22",43
"CDISCPILOT01","LB","01-701-1429",32,"SPGRAV","Specific Gravity","URINALYSIS","1.016","","1.006","1.03","1.016",1.016,"",1.006,1.03,"NORMAL","Y",1,"SCREENING 1",-7,"SCREENING","2013-02-21T16:20",-26
"CDISCPILOT01","LB","01-701-1429",69,"SPGRAV","Specific Gravity","URINALYSIS","1.013","","1.006","1.03","1.013",1.013,"",1.006,1.03,"NORMAL","",4,"WEEK 2",14,"TREATMENT","2013-04-02T12:41",15
"CDISCPILOT01","LB","01-701-1429",134,"SPGRAV","Specific Gravity","URINALYSIS","1.025","","1.006","1.03","1.025",1.025,"",1.006,1.03,"NORMAL","",7,"WEEK 6",42,"TREATMENT","2013-04-30T12:22",43
"CDISCPILOT01","LB","01-701-1429",33,"TSH","Thyrotropin","OTHER","1.19","mIU/L","0.32","5","1.19",1.19,"mU/L",0.32,5,"NORMAL","Y",1,"SCREENING 1",-7,"SCREENING","2013-02-21T16:20",-26
"CDISCPILOT01","LB","01-701-1429",35,"UROBIL","Urobilinogen","URINALYSIS","0","","","","0",0,"",0,0,"NORMAL","Y",1,"SCREENING 1",-7,"SCREENING","2013-02-21T16:20",-26
"CDISCPILOT01","LB","01-701-1429",71,"UROBIL","Urobilinogen","URINALYSIS","0","","","","0",0,"",0,0,"NORMAL","",4,"WEEK 2",14,"TREATMENT","2013-04-02T12:41",15
"CDISCPILOT01","LB","01-701-1429",136,"UROBIL","Urobilinogen","URINALYSIS","0","","","","0",0,"",0,0,"NORMAL","",7,"WEEK 6",42,"TREATMENT","2013-04-30T12:22",43
"CDISCPILOT01","LB","01-701-1429",36,"VITB12","Vitamin B12","OTHER","329","ng/L","200","900","242.7362",242.7362,"pmol/L",148,664,"NORMAL","Y",1,"SCREENING 1",-7,"SCREENING","2013-02-21T16:20",-26
"CDISCPILOT01","LB","01-701-1440",12,"COLOR","Color","URINALYSIS","N","","","","N",0,"",0,0,"NORMAL","Y",1,"SCREENING 1",-7,"SCREENING","2013-07-24T12:09",-15
"CDISCPILOT01","LB","01-701-1440",49,"COLOR","Color","URINALYSIS","N","","","","N",0,"",0,0,"NORMAL","",4,"WEEK 2",14,"TREATMENT","2013-08-23T09:40",16
"CDISCPILOT01","LB","01-701-1440",174,"COLOR","Color","URINALYSIS","N","","","","N",0,"",0,0,"NORMAL","",9,"WEEK 12",84,"TREATMENT","2013-10-31T11:50",85
"CDISCPILOT01","LB","01-701-1440",269,"COLOR","Color","URINALYSIS","N","","","","N",0,"",0,0,"NORMAL","",12,"WEEK 24",168,"TREATMENT","2014-01-22T12:32",168
"CDISCPILOT01","LB","01-701-1440",20,"KETONES","Ketones","URINALYSIS","0","","","","0",0,"",0,0,"NORMAL","Y",1,"SCREENING 1",-7,"SCREENING","2013-07-24T12:09",-15
"CDISCPILOT01","LB","01-701-1440",57,"KETONES","Ketones","URINALYSIS","0","","","","0",0,"",0,0,"NORMAL","",4,"WEEK 2",14,"TREATMENT","2013-08-23T09:40",16
"CDISCPILOT01","LB","01-701-1440",182,"KETONES","Ketones","URINALYSIS","0","","","","0",0,"",0,0,"NORMAL","",9,"WEEK 12",84,"TREATMENT","2013-10-31T11:50",85
"CDISCPILOT01","LB","01-701-1440",277,"KETONES","Ketones","URINALYSIS","0","","","","0",0,"",0,0,"NORMAL","",12,"WEEK 24",168,"TREATMENT","2014-01-22T12:32",168
"CDISCPILOT01","LB","01-701-1440",27,"PH","pH","URINALYSIS","5.0","","5","8","5",5,"",5,8,"NORMAL","Y",1,"SCREENING 1",-7,"SCREENING","2013-07-24T12:09",-15
"CDISCPILOT01","LB","01-701-1440",64,"PH","pH","URINALYSIS","5.0","","5","8","5",5,"",5,8,"NORMAL","",4,"WEEK 2",14,"TREATMENT","2013-08-23T09:40",16
"CDISCPILOT01","LB","01-701-1440",189,"PH","pH","URINALYSIS","6.0","","5","8","6",6,"",5,8,"NORMAL","",9,"WEEK 12",84,"TREATMENT","2013-10-31T11:50",85
"CDISCPILOT01","LB","01-701-1440",284,"PH","pH","URINALYSIS","6.0","","5","8","6",6,"",5,8,"NORMAL","",12,"WEEK 24",168,"TREATMENT","2014-01-22T12:32",168
"CDISCPILOT01","LB","01-701-1440",32,"SPGRAV","Specific Gravity","URINALYSIS","1.015","","1.006","1.03","1.015",1.015,"",1.006,1.03,"NORMAL","Y",1,"SCREENING 1",-7,"SCREENING","2013-07-24T12:09",-15
"CDISCPILOT01","LB","01-701-1440",69,"SPGRAV","Specific Gravity","URINALYSIS","1.011","","1.006","1.03","1.011",1.011,"",1.006,1.03,"NORMAL","",4,"WEEK 2",14,"TREATMENT","2013-08-23T09:40",16
"CDISCPILOT01","LB","01-701-1440",194,"SPGRAV","Specific Gravity","URINALYSIS","1.016","","1.006","1.03","1.016",1.016,"",1.006,1.03,"NORMAL","",9,"WEEK 12",84,"TREATMENT","2013-10-31T11:50",85
"CDISCPILOT01","LB","01-701-1440",289,"SPGRAV","Specific Gravity","URINALYSIS","1.018","","1.006","1.03","1.018",1.018,"",1.006,1.03,"NORMAL","",12,"WEEK 24",168,"TREATMENT","2014-01-22T12:32",168
"CDISCPILOT01","LB","01-701-1440",33,"TSH","Thyrotropin","OTHER","0.45","mIU/L","0.32","5","0.45",0.45,"mU/L",0.32,5,"NORMAL","Y",1,"SCREENING 1",-7,"SCREENING","2013-07-24T12:09",-15
"CDISCPILOT01","LB","01-701-1440",35,"UROBIL","Urobilinogen","URINALYSIS","0","","","","0",0,"",0,0,"NORMAL","Y",1,"SCREENING 1",-7,"SCREENING","2013-07-24T12:09",-15
"CDISCPILOT01","LB","01-701-1440",71,"UROBIL","Urobilinogen","URINALYSIS","0","","","","0",0,"",0,0,"NORMAL","",4,"WEEK 2",14,"TREATMENT","2013-08-23T09:40",16
"CDISCPILOT01","LB","01-701-1440",196,"UROBIL","Urobilinogen","URINALYSIS","0","","","","0",0,"",0,0,"NORMAL","",9,"WEEK 12",84,"TREATMENT","2013-10-31T11:50",85
"CDISCPILOT01","LB","01-701-1440",291,"UROBIL","Urobilinogen","URINALYSIS","0","","","","0",0,"",0,0,"NORMAL","",12,"WEEK 24",168,"TREATMENT","2014-01-22T12:32",168
"CDISCPILOT01","LB","01-701-1440",36,"VITB12","Vitamin B12","OTHER","269","ng/L","200","900","198.4682",198.4682,"pmol/L",148,664,"NORMAL","Y",1,"SCREENING 1",-7,"SCREENING","2013-07-24T12:09",-15
"CDISCPILOT01","LB","01-701-1442",12,"COLOR","Color","URINALYSIS","N","","","","N",0,"",0,0,"NORMAL","Y",1,"SCREENING 1",-7,"SCREENING","2013-10-17T11:49",-9
"CDISCPILOT01","LB","01-701-1442",49,"COLOR","Color","URINALYSIS","N","","","","N",0,"",0,0,"NORMAL","",4,"WEEK 2",14,"TREATMENT","2013-11-09T09:50",15
"CDISCPILOT01","LB","01-701-1442",174,"COLOR","Color","URINALYSIS","N","","","","N",0,"",0,0,"NORMAL","",9,"WEEK 12",84,"TREATMENT","2014-01-18T08:37",85
"CDISCPILOT01","LB","01-701-1442",269,"COLOR","Color","URINALYSIS","N","","","","N",0,"",0,0,"NORMAL","",12,"WEEK 24",168,"TREATMENT","2014-04-17T15:14",174
"CDISCPILOT01","LB","01-701-1442",20,"KETONES","Ketones","URINALYSIS","0","","","","0",0,"",0,0,"NORMAL","Y",1,"SCREENING 1",-7,"SCREENING","2013-10-17T11:49",-9
"CDISCPILOT01","LB","01-701-1442",57,"KETONES","Ketones","URINALYSIS","0","","","","0",0,"",0,0,"NORMAL","",4,"WEEK 2",14,"TREATMENT","2013-11-09T09:50",15
"CDISCPILOT01","LB","01-701-1442",182,"KETONES","Ketones","URINALYSIS","0","","","","0",0,"",0,0,"NORMAL","",9,"WEEK 12",84,"TREATMENT","2014-01-18T08:37",85
"CDISCPILOT01","LB","01-701-1442",277,"KETONES","Ketones","URINALYSIS","0","","","","0",0,"",0,0,"NORMAL","",12,"WEEK 24",168,"TREATMENT","2014-04-17T15:14",174
"CDISCPILOT01","LB","01-701-1442",27,"PH","pH","URINALYSIS","5.0","","5","8","5",5,"",5,8,"NORMAL","Y",1,"SCREENING 1",-7,"SCREENING","2013-10-17T11:49",-9
"CDISCPILOT01","LB","01-701-1442",64,"PH","pH","URINALYSIS","5.0","","5","8","5",5,"",5,8,"NORMAL","",4,"WEEK 2",14,"TREATMENT","2013-11-09T09:50",15
"CDISCPILOT01","LB","01-701-1442",189,"PH","pH","URINALYSIS","5.0","","5","8","5",5,"",5,8,"NORMAL","",9,"WEEK 12",84,"TREATMENT","2014-01-18T08:37",85
"CDISCPILOT01","LB","01-701-1442",284,"PH","pH","URINALYSIS","6.0","","5","8","6",6,"",5,8,"NORMAL","",12,"WEEK 24",168,"TREATMENT","2014-04-17T15:14",174
"CDISCPILOT01","LB","01-701-1442",32,"SPGRAV","Specific Gravity","URINALYSIS","1.015","","1.01","1.034","1.015",1.015,"",1.01,1.034,"NORMAL","Y",1,"SCREENING 1",-7,"SCREENING","2013-10-17T11:49",-9
"CDISCPILOT01","LB","01-701-1442",69,"SPGRAV","Specific Gravity","URINALYSIS","1.016","","1.01","1.034","1.016",1.016,"",1.01,1.034,"NORMAL","",4,"WEEK 2",14,"TREATMENT","2013-11-09T09:50",15
"CDISCPILOT01","LB","01-701-1442",194,"SPGRAV","Specific Gravity","URINALYSIS","1.016","","1.01","1.034","1.016",1.016,"",1.01,1.034,"NORMAL","",9,"WEEK 12",84,"TREATMENT","2014-01-18T08:37",85
"CDISCPILOT01","LB","01-701-1442",289,"SPGRAV","Specific Gravity","URINALYSIS","1.015","","1.01","1.034","1.015",1.015,"",1.01,1.034,"NORMAL","",12,"WEEK 24",168,"TREATMENT","2014-04-17T15:14",174
"CDISCPILOT01","LB","01-701-1442",33,"TSH","Thyrotropin","OTHER","3.28","mIU/L","0.32","5","3.28",3.28,"mU/L",0.32,5,"NORMAL","Y",1,"SCREENING 1",-7,"SCREENING","2013-10-17T11:49",-9
"CDISCPILOT01","LB","01-701-1442",35,"UROBIL","Urobilinogen","URINALYSIS","0","","","","0",0,"",0,0,"NORMAL","Y",1,"SCREENING 1",-7,"SCREENING","2013-10-17T11:49",-9
"CDISCPILOT01","LB","01-701-1442",71,"UROBIL","Urobilinogen","URINALYSIS","0","","","","0",0,"",0,0,"NORMAL","",4,"WEEK 2",14,"TREATMENT","2013-11-09T09:50",15
"CDISCPILOT01","LB","01-701-1442",196,"UROBIL","Urobilinogen","URINALYSIS","0","","","","0",0,"",0,0,"NORMAL","",9,"WEEK 12",84,"TREATMENT","2014-01-18T08:37",85
"CDISCPILOT01","LB","01-701-1442",291,"UROBIL","Urobilinogen","URINALYSIS","0","","","","0",0,"",0,0,"NORMAL","",12,"WEEK 24",168,"TREATMENT","2014-04-17T15:14",174
"CDISCPILOT01","LB","01-701-1442",36,"VITB12","Vitamin B12","OTHER","722","ng/L","200","900","532.6916",532.6916,"pmol/L",148,664,"NORMAL","Y",1,"SCREENING 1",-7,"SCREENING","2013-10-17T11:49",-9
"CDISCPILOT01","LB","01-701-1444",12,"COLOR","Color","URINALYSIS","N","","","","N",0,"",0,0,"NORMAL","Y",1,"SCREENING 1",-7,"SCREENING","2012-12-31T11:05",-5
"CDISCPILOT01","LB","01-701-1444",49,"COLOR","Color","URINALYSIS","N","","","","N",0,"",0,0,"NORMAL","",4,"WEEK 2",14,"TREATMENT","2013-01-18T14:19",14
"CDISCPILOT01","LB","01-701-1444",114,"COLOR","Color","URINALYSIS","N","","","","N",0,"",0,0,"NORMAL","",7,"WEEK 6",42,"TREATMENT","2013-02-13T15:53",40
"CDISCPILOT01","LB","01-701-1444",20,"KETONES","Ketones","URINALYSIS","0","","","","0",0,"",0,0,"NORMAL","Y",1,"SCREENING 1",-7,"SCREENING","2012-12-31T11:05",-5
"CDISCPILOT01","LB","01-701-1444",57,"KETONES","Ketones","URINALYSIS","0","","","","0",0,"",0,0,"NORMAL","",4,"WEEK 2",14,"TREATMENT","2013-01-18T14:19",14
"CDISCPILOT01","LB","01-701-1444",122,"KETONES","Ketones","URINALYSIS","0","","","","0",0,"",0,0,"NORMAL","",7,"WEEK 6",42,"TREATMENT","2013-02-13T15:53",40
"CDISCPILOT01","LB","01-701-1444",27,"PH","pH","URINALYSIS","5.0","","5","8","5",5,"",5,8,"NORMAL","Y",1,"SCREENING 1",-7,"SCREENING","2012-12-31T11:05",-5
"CDISCPILOT01","LB","01-701-1444",64,"PH","pH","URINALYSIS","5.0","","5","8","5",5,"",5,8,"NORMAL","",4,"WEEK 2",14,"TREATMENT","2013-01-18T14:19",14
"CDISCPILOT01","LB","01-701-1444",129,"PH","pH","URINALYSIS","5.0","","5","8","5",5,"",5,8,"NORMAL","",7,"WEEK 6",42,"TREATMENT","2013-02-13T15:53",40
"CDISCPILOT01","LB","01-701-1444",32,"SPGRAV","Specific Gravity","URINALYSIS","1.015","","1.006","1.03","1.015",1.015,"",1.006,1.03,"NORMAL","Y",1,"SCREENING 1",-7,"SCREENING","2012-12-31T11:05",-5
"CDISCPILOT01","LB","01-701-1444",69,"SPGRAV","Specific Gravity","URINALYSIS","1.013","","1.006","1.03","1.013",1.013,"",1.006,1.03,"NORMAL","",4,"WEEK 2",14,"TREATMENT","2013-01-18T14:19",14
"CDISCPILOT01","LB","01-701-1444",134,"SPGRAV","Specific Gravity","URINALYSIS","1.028","","1.006","1.03","1.028",1.028,"",1.006,1.03,"NORMAL","",7,"WEEK 6",42,"TREATMENT","2013-02-13T15:53",40
"CDISCPILOT01","LB","01-701-1444",33,"TSH","Thyrotropin","OTHER","1.63","mIU/L","0.32","5","1.63",1.63,"mU/L",0.32,5,"NORMAL","Y",1,"SCREENING 1",-7,"SCREENING","2012-12-31T11:05",-5
"CDISCPILOT01","LB","01-701-1444",35,"UROBIL","Urobilinogen","URINALYSIS","0","","","","0",0,"",0,0,"NORMAL","Y",1,"SCREENING 1",-7,"SCREENING","2012-12-31T11:05",-5
"CDISCPILOT01","LB","01-701-1444",71,"UROBIL","Urobilinogen","URINALYSIS","0","","","","0",0,"",0,0,"NORMAL","",4,"WEEK 2",14,"TREATMENT","2013-01-18T14:19",14
"CDISCPILOT01","LB","01-701-1444",136,"UROBIL","Urobilinogen","URINALYSIS","0","","","","0",0,"",0,0,"NORMAL","",7,"WEEK 6",42,"TREATMENT","2013-02-13T15:53",40
"CDISCPILOT01","LB","01-701-1444",36,"VITB12","Vitamin B12","OTHER","294","ng/L","200","900","216.9132",216.9132,"pmol/L",148,664,"NORMAL","Y",1,"SCREENING 1",-7,"SCREENING","2012-12-31T11:05",-5
"CDISCPILOT01","LB","01-702-1082",12,"COLOR","Color","URINALYSIS","N","","","","N",0,"",0,0,"NORMAL","Y",1,"SCREENING 1",-7,"SCREENING","2013-07-03T14:00",-23
"CDISCPILOT01","LB","01-702-1082",48,"COLOR","Color","URINALYSIS","N","","","","N",0,"",0,0,"NORMAL","",1.1,"UNSCHEDULED 1.1",0,"SCREENING","2013-07-24T14:00",-2
"CDISCPILOT01","LB","01-702-1082",85,"COLOR","Color","URINALYSIS","N","","","","N",0,"",0,0,"NORMAL","",4,"WEEK 2",14,"TREATMENT","2013-08-08T14:00",14
"CDISCPILOT01","LB","01-702-1082",210,"COLOR","Color","URINALYSIS","N","","","","N",0,"",0,0,"NORMAL","",9,"WEEK 12",84,"TREATMENT","2013-11-17T12:20",115
"CDISCPILOT01","LB","01-702-1082",20,"KETONES","Ketones","URINALYSIS","0","","","","0",0,"",0,0,"NORMAL","Y",1,"SCREENING 1",-7,"SCREENING","2013-07-03T14:00",-23
"CDISCPILOT01","LB","01-702-1082",53,"KETONES","Ketones","URINALYSIS","0","","","","0",0,"",0,0,"NORMAL","",1.1,"UNSCHEDULED 1.1",0,"SCREENING","2013-07-24T14:00",-2
"CDISCPILOT01","LB","01-702-1082",93,"KETONES","Ketones","URINALYSIS","0","","","","0",0,"",0,0,"NORMAL","",4,"WEEK 2",14,"TREATMENT","2013-08-08T14:00",14
"CDISCPILOT01","LB","01-702-1082",218,"KETONES","Ketones","URINALYSIS","1","","","","1",1,"",0,0,"ABNORMAL","",9,"WEEK 12",84,"TREATMENT","2013-11-17T12:20",115
"CDISCPILOT01","LB","01-702-1082",27,"PH","pH","URINALYSIS","5.0","","5","8","5",5,"",5,8,"NORMAL","Y",1,"SCREENING 1",-7,"SCREENING","2013-07-03T14:00",-23
"CDISCPILOT01","LB","01-702-1082",55,"PH","pH","URINALYSIS","5.0","","5","8","5",5,"",5,8,"NORMAL","",1.1,"UNSCHEDULED 1.1",0,"SCREENING","2013-07-24T14:00",-2
"CDISCPILOT01","LB","01-702-1082",100,"PH","pH","URINALYSIS","6.0","","5","8","6",6,"",5,8,"NORMAL","",4,"WEEK 2",14,"TREATMENT","2013-08-08T14:00",14
"CDISCPILOT01","LB","01-702-1082",225,"PH","pH","URINALYSIS","5.0","","5","8","5",5,"",5,8,"NORMAL","",9,"WEEK 12",84,"TREATMENT","2013-11-17T12:20",115
"CDISCPILOT01","LB","01-702-1082",32,"SPGRAV","Specific Gravity","URINALYSIS","1.026","","1.006","1.03","1.026",1.026,"",1.006,1.03,"NORMAL","Y",1,"SCREENING 1",-7,"SCREENING","2013-07-03T14:00",-23
"CDISCPILOT01","LB","01-702-1082",58,"SPGRAV","Specific Gravity","URINALYSIS","1.022","","1.006","1.03","1.022",1.022,"",1.006,1.03,"NORMAL","",1.1,"UNSCHEDULED 1.1",0,"SCREENING","2013-07-24T14:00",-2
"CDISCPILOT01","LB","01-702-1082",105,"SPGRAV","Specific Gravity","URINALYSIS","1.022","","1.006","1.03","1.022",1.022,"",1.006,1.03,"NORMAL","",4,"WEEK 2",14,"TREATMENT","2013-08-08T14:00",14
"CDISCPILOT01","LB","01-702-1082",230,"SPGRAV","Specific Gravity","URINALYSIS","1.020","","1.006","1.03","1.02",1.02,"",1.006,1.03,"NORMAL","",9,"WEEK 12",84,"TREATMENT","2013-11-17T12:20",115
"CDISCPILOT01","LB","01-702-1082",33,"TSH","Thyrotropin","OTHER","2.37","mIU/L","0.32","5","2.37",2.37,"mU/L",0.32,5,"NORMAL","Y",1,"SCREENING 1",-7,"SCREENING","2013-07-03T14:00",-23
"CDISCPILOT01","LB","01-702-1082",59,"TSH","Thyrotropin","OTHER","3.27","mIU/L","0.32","5","3.27",3.27,"mU/L",0.32,5,"NORMAL","",1.1,"UNSCHEDULED 1.1",0,"SCREENING","2013-07-24T14:00",-2
"CDISCPILOT01","LB","01-702-1082",35,"UROBIL","Urobilinogen","URINALYSIS","0","","","","0",0,"",0,0,"NORMAL","Y",1,"SCREENING 1",-7,"SCREENING","2013-07-03T14:00",-23
"CDISCPILOT01","LB","01-702-1082",61,"UROBIL","Urobilinogen","URINALYSIS","0","","","","0",0,"",0,0,"NORMAL","",1.1,"UNSCHEDULED 1.1",0,"SCREENING","2013-07-24T14:00",-2
"CDISCPILOT01","LB","01-702-1082",107,"UROBIL","Urobilinogen","URINALYSIS","0","","","","0",0,"",0,0,"NORMAL","",4,"WEEK 2",14,"TREATMENT","2013-08-08T14:00",14
"CDISCPILOT01","LB","01-702-1082",232,"UROBIL","Urobilinogen","URINALYSIS","0","","","","0",0,"",0,0,"NORMAL","",9,"WEEK 12",84,"TREATMENT","2013-11-17T12:20",115
"CDISCPILOT01","LB","01-702-1082",36,"VITB12","Vitamin B12","OTHER","946","ng/L","200","900","697.9588",697.9588,"pmol/L",148,664,"HIGH","Y",1,"SCREENING 1",-7,"SCREENING","2013-07-03T14:00",-23
"CDISCPILOT01","LB","01-703-1042",12,"COLOR","Color","URINALYSIS","N","","","","N",0,"",0,0,"NORMAL","Y",1,"SCREENING 1",-7,"SCREENING","2012-12-27T12:45",-65
"CDISCPILOT01","LB","01-703-1042",49,"COLOR","Color","URINALYSIS","N","","","","N",0,"",0,0,"NORMAL","",1.1,"UNSCHEDULED 1.1",0,"SCREENING","2013-02-21T13:30",-9
"CDISCPILOT01","LB","01-703-1042",86,"COLOR","Color","URINALYSIS","N","","","","N",0,"",0,0,"NORMAL","",4,"WEEK 2",14,"TREATMENT","2013-03-14T12:00",13
"CDISCPILOT01","LB","01-703-1042",212,"COLOR","Color","URINALYSIS","N","","","","N",0,"",0,0,"NORMAL","",9,"WEEK 12",84,"TREATMENT","2013-05-25T10:30",85
"CDISCPILOT01","LB","01-703-1042",307,"COLOR","Color","URINALYSIS","N","","","","N",0,"",0,0,"NORMAL","",12,"WEEK 24",168,"TREATMENT","2013-08-09T13:45",161
"CDISCPILOT01","LB","01-703-1042",20,"KETONES","Ketones","URINALYSIS","0","","","","0",0,"",0,0,"NORMAL","Y",1,"SCREENING 1",-7,"SCREENING","2012-12-27T12:45",-65
"CDISCPILOT01","LB","01-703-1042",57,"KETONES","Ketones","URINALYSIS","0","","","","0",0,"",0,0,"NORMAL","",1.1,"UNSCHEDULED 1.1",0,"SCREENING","2013-02-21T13:30",-9
"CDISCPILOT01","LB","01-703-1042",94,"KETONES","Ketones","URINALYSIS","0","","","","0",0,"",0,0,"NORMAL","",4,"WEEK 2",14,"TREATMENT","2013-03-14T12:00",13
"CDISCPILOT01","LB","01-703-1042",220,"KETONES","Ketones","URINALYSIS","0","","","","0",0,"",0,0,"NORMAL","",9,"WEEK 12",84,"TREATMENT","2013-05-25T10:30",85
"CDISCPILOT01","LB","01-703-1042",315,"KETONES","Ketones","URINALYSIS","0","","","","0",0,"",0,0,"NORMAL","",12,"WEEK 24",168,"TREATMENT","2013-08-09T13:45",161
"CDISCPILOT01","LB","01-703-1042",27,"PH","pH","URINALYSIS","5.0","","5","8","5",5,"",5,8,"NORMAL","Y",1,"SCREENING 1",-7,"SCREENING","2012-12-27T12:45",-65
"CDISCPILOT01","LB","01-703-1042",64,"PH","pH","URINALYSIS","5.0","","5","8","5",5,"",5,8,"NORMAL","",1.1,"UNSCHEDULED 1.1",0,"SCREENING","2013-02-21T13:30",-9
"CDISCPILOT01","LB","01-703-1042",101,"PH","pH","URINALYSIS","7.0","","5","8","7",7,"",5,8,"NORMAL","",4,"WEEK 2",14,"TREATMENT","2013-03-14T12:00",13
"CDISCPILOT01","LB","01-703-1042",227,"PH","pH","URINALYSIS","5.0","","5","8","5",5,"",5,8,"NORMAL","",9,"WEEK 12",84,"TREATMENT","2013-05-25T10:30",85
"CDISCPILOT01","LB","01-703-1042",322,"PH","pH","URINALYSIS","5.0","","5","8","5",5,"",5,8,"NORMAL","",12,"WEEK 24",168,"TREATMENT","2013-08-09T13:45",161
"CDISCPILOT01","LB","01-703-1042",32,"SPGRAV","Specific Gravity","URINALYSIS","1.028","","1.006","1.03","1.028",1.028,"",1.006,1.03,"NORMAL","Y",1,"SCREENING 1",-7,"SCREENING","2012-12-27T12:45",-65
"CDISCPILOT01","LB","01-703-1042",69,"SPGRAV","Specific Gravity","URINALYSIS","1.023","","1.006","1.03","1.023",1.023,"",1.006,1.03,"NORMAL","",1.1,"UNSCHEDULED 1.1",0,"SCREENING","2013-02-21T13:30",-9
"CDISCPILOT01","LB","01-703-1042",106,"SPGRAV","Specific Gravity","URINALYSIS","1.025","","1.006","1.03","1.025",1.025,"",1.006,1.03,"NORMAL","",4,"WEEK 2",14,"TREATMENT","2013-03-14T12:00",13
"CDISCPILOT01","LB","01-703-1042",232,"SPGRAV","Specific Gravity","URINALYSIS","1.022","","1.006","1.03","1.022",1.022,"",1.006,1.03,"NORMAL","",9,"WEEK 12",84,"TREATMENT","2013-05-25T10:30",85
"CDISCPILOT01","LB","01-703-1042",327,"SPGRAV","Specific Gravity","URINALYSIS","1.029","","1.006","1.03","1.029",1.029,"",1.006,1.03,"NORMAL","",12,"WEEK 24",168,"TREATMENT","2013-08-09T13:45",161
"CDISCPILOT01","LB","01-703-1042",33,"TSH","Thyrotropin","OTHER","0.81","mIU/L","0.32","5","0.81",0.81,"mU/L",0.32,5,"NORMAL","Y",1,"SCREENING 1",-7,"SCREENING","2012-12-27T12:45",-65
"CDISCPILOT01","LB","01-703-1042",70,"TSH","Thyrotropin","OTHER","0.68","mIU/L","0.32","5","0.68",0.68,"mU/L",0.32,5,"NORMAL","",1.1,"UNSCHEDULED 1.1",0,"SCREENING","2013-02-21T13:30",-9
"CDISCPILOT01","LB","01-703-1042",35,"UROBIL","Urobilinogen","URINALYSIS","0","","","","0",0,"",0,0,"NORMAL","Y",1,"SCREENING 1",-7,"SCREENING","2012-12-27T12:45",-65
"CDISCPILOT01","LB","01-703-1042",72,"UROBIL","Urobilinogen","URINALYSIS","0","","","","0",0,"",0,0,"NORMAL","",1.1,"UNSCHEDULED 1.1",0,"SCREENING","2013-02-21T13:30",-9
"CDISCPILOT01","LB","01-703-1042",108,"UROBIL","Urobilinogen","URINALYSIS","0","","","","0",0,"",0,0,"NORMAL","",4,"WEEK 2",14,"TREATMENT","2013-03-14T12:00",13
"CDISCPILOT01","LB","01-703-1042",234,"UROBIL","Urobilinogen","URINALYSIS","0","","","","0",0,"",0,0,"NORMAL","",9,"WEEK 12",84,"TREATMENT","2013-05-25T10:30",85
"CDISCPILOT01","LB","01-703-1042",329,"UROBIL","Urobilinogen","URINALYSIS","0","","","","0",0,"",0,0,"NORMAL","",12,"WEEK 24",168,"TREATMENT","2013-08-09T13:45",161
"CDISCPILOT01","LB","01-703-1042",36,"VITB12","Vitamin B12","OTHER","266","ng/L","200","900","196.2548",196.2548,"pmol/L",148,664,"NORMAL","Y",1,"SCREENING 1",-7,"SCREENING","2012-12-27T12:45",-65
"CDISCPILOT01","LB","01-703-1042",73,"VITB12","Vitamin B12","OTHER","208","ng/L","200","900","153.4624",153.4624,"pmol/L",148,664,"NORMAL","",1.1,"UNSCHEDULED 1.1",0,"SCREENING","2013-02-21T13:30",-9
"CDISCPILOT01","LB","01-703-1076",12,"COLOR","Color","URINALYSIS","N","","","","N",0,"",0,0,"NORMAL","Y",1,"SCREENING 1",-7,"SCREENING","2013-10-16T11:30",-9
"CDISCPILOT01","LB","01-703-1076",49,"COLOR","Color","URINALYSIS","N","","","","N",0,"",0,0,"NORMAL","",4,"WEEK 2",14,"TREATMENT","2013-11-06T10:00",13
"CDISCPILOT01","LB","01-703-1076",174,"COLOR","Color","URINALYSIS","N","","","","N",0,"",0,0,"NORMAL","",9,"WEEK 12",84,"TREATMENT","2013-12-24T13:05",61
"CDISCPILOT01","LB","01-703-1076",20,"KETONES","Ketones","URINALYSIS","0","","","","0",0,"",0,0,"NORMAL","Y",1,"SCREENING 1",-7,"SCREENING","2013-10-16T11:30",-9
"CDISCPILOT01","LB","01-703-1076",57,"KETONES","Ketones","URINALYSIS","0","","","","0",0,"",0,0,"NORMAL","",4,"WEEK 2",14,"TREATMENT","2013-11-06T10:00",13
"CDISCPILOT01","LB","01-703-1076",182,"KETONES","Ketones","URINALYSIS","0","","","","0",0,"",0,0,"NORMAL","",9,"WEEK 12",84,"TREATMENT","2013-12-24T13:05",61
"CDISCPILOT01","LB","01-703-1076",27,"PH","pH","URINALYSIS","5.0","","5","8","5",5,"",5,8,"NORMAL","Y",1,"SCREENING 1",-7,"SCREENING","2013-10-16T11:30",-9
"CDISCPILOT01","LB","01-703-1076",64,"PH","pH","URINALYSIS","6.0","","5","8","6",6,"",5,8,"NORMAL","",4,"WEEK 2",14,"TREATMENT","2013-11-06T10:00",13
"CDISCPILOT01","LB","01-703-1076",189,"PH","pH","URINALYSIS","5.0","","5","8","5",5,"",5,8,"NORMAL","",9,"WEEK 12",84,"TREATMENT","2013-12-24T13:05",61
"CDISCPILOT01","LB","01-703-1076",32,"SPGRAV","Specific Gravity","URINALYSIS","1.015","","1.006","1.03","1.015",1.015,"",1.006,1.03,"NORMAL","Y",1,"SCREENING 1",-7,"SCREENING","2013-10-16T11:30",-9
"CDISCPILOT01","LB","01-703-1076",69,"SPGRAV","Specific Gravity","URINALYSIS","1.010","","1.006","1.03","1.01",1.01,"",1.006,1.03,"NORMAL","",4,"WEEK 2",14,"TREATMENT","2013-11-06T10:00",13
"CDISCPILOT01","LB","01-703-1076",194,"SPGRAV","Specific Gravity","URINALYSIS","1.019","","1.006","1.03","1.019",1.019,"",1.006,1.03,"NORMAL","",9,"WEEK 12",84,"TREATMENT","2013-12-24T13:05",61
"CDISCPILOT01","LB","01-703-1076",33,"TSH","Thyrotropin","OTHER","3.34","mIU/L","0.32","5","3.34",3.34,"mU/L",0.32,5,"NORMAL","Y",1,"SCREENING 1",-7,"SCREENING","2013-10-16T11:30",-9
"CDISCPILOT01","LB","01-703-1076",35,"UROBIL","Urobilinogen","URINALYSIS","0","","","","0",0,"",0,0,"NORMAL","Y",1,"SCREENING 1",-7,"SCREENING","2013-10-16T11:30",-9
"CDISCPILOT01","LB","01-703-1076",71,"UROBIL","Urobilinogen","URINALYSIS","0","","","","0",0,"",0,0,"NORMAL","",4,"WEEK 2",14,"TREATMENT","2013-11-06T10:00",13
"CDISCPILOT01","LB","01-703-1076",196,"UROBIL","Urobilinogen","URINALYSIS","0","","","","0",0,"",0,0,"NORMAL","",9,"WEEK 12",84,"TREATMENT","2013-12-24T13:05",61
"CDISCPILOT01","LB","01-703-1076",36,"VITB12","Vitamin B12","OTHER","585","ng/L","200","900","431.613",431.613,"pmol/L",148,664,"NORMAL","Y",1,"SCREENING 1",-7,"SCREENING","2013-10-16T11:30",-9
"CDISCPILOT01","LB","01-703-1086",11,"COLOR","Color","URINALYSIS","N","","","","N",0,"",0,0,"NORMAL","Y",1,"SCREENING 1",-7,"SCREENING","2012-08-19T14:50",-14
"CDISCPILOT01","LB","01-703-1086",49,"COLOR","Color","URINALYSIS","N","","","","N",0,"",0,0,"NORMAL","",4,"WEEK 2",14,"TREATMENT","2012-09-16T11:10",15
"CDISCPILOT01","LB","01-703-1086",174,"COLOR","Color","URINALYSIS","N","","","","N",0,"",0,0,"NORMAL","",9,"WEEK 12",84,"TREATMENT","2012-11-27T09:30",87
"CDISCPILOT01","LB","01-703-1086",209,"COLOR","Color","URINALYSIS","N","","","","N",0,"",0,0,"NORMAL","",10,"WEEK 16",112,"TREATMENT","2012-12-24T09:30",114
"CDISCPILOT01","LB","01-703-1086",16,"KETONES","Ketones","URINALYSIS","0","","","","0",0,"",0,0,"NORMAL","Y",1,"SCREENING 1",-7,"SCREENING","2012-08-19T14:50",-14
"CDISCPILOT01","LB","01-703-1086",57,"KETONES","Ketones","URINALYSIS","0","","","","0",0,"",0,0,"NORMAL","",4,"WEEK 2",14,"TREATMENT","2012-09-16T11:10",15
"CDISCPILOT01","LB","01-703-1086",182,"KETONES","Ketones","URINALYSIS","0","","","","0",0,"",0,0,"NORMAL","",9,"WEEK 12",84,"TREATMENT","2012-11-27T09:30",87
"CDISCPILOT01","LB","01-703-1086",217,"KETONES","Ketones","URINALYSIS","0","","","","0",0,"",0,0,"NORMAL","",10,"WEEK 16",112,"TREATMENT","2012-12-24T09:30",114
"CDISCPILOT01","LB","01-703-1086",18,"PH","pH","URINALYSIS","6.0","","5","8","6",6,"",5,8,"NORMAL","Y",1,"SCREENING 1",-7,"SCREENING","2012-08-19T14:50",-14
"CDISCPILOT01","LB","01-703-1086",64,"PH","pH","URINALYSIS","7.0","","5","8","7",7,"",5,8,"NORMAL","",4,"WEEK 2",14,"TREATMENT","2012-09-16T11:10",15
"CDISCPILOT01","LB","01-703-1086",189,"PH","pH","URINALYSIS","6.0","","5","8","6",6,"",5,8,"NORMAL","",9,"WEEK 12",84,"TREATMENT","2012-11-27T09:30",87
"CDISCPILOT01","LB","01-703-1086",224,"PH","pH","URINALYSIS","7.0","","5","8","7",7,"",5,8,"NORMAL","",10,"WEEK 16",112,"TREATMENT","2012-12-24T09:30",114
"CDISCPILOT01","LB","01-703-1086",21,"SPGRAV","Specific Gravity","URINALYSIS","1.011","","1.006","1.03","1.011",1.011,"",1.006,1.03,"NORMAL","Y",1,"SCREENING 1",-7,"SCREENING","2012-08-19T14:50",-14
"CDISCPILOT01","LB","01-703-1086",69,"SPGRAV","Specific Gravity","URINALYSIS","1.023","","1.006","1.03","1.023",1.023,"",1.006,1.03,"NORMAL","",4,"WEEK 2",14,"TREATMENT","2012-09-16T11:10",15
"CDISCPILOT01","LB","01-703-1086",194,"SPGRAV","Specific Gravity","URINALYSIS","1.013","","1.006","1.03","1.013",1.013,"",1.006,1.03,"NORMAL","",9,"WEEK 12",84,"TREATMENT","2012-11-27T09:30",87
"CDISCPILOT01","LB","01-703-1086",229,"SPGRAV","Specific Gravity","URINALYSIS","1.012","","1.006","1.03","1.012",1.012,"",1.006,1.03,"NORMAL","",10,"WEEK 16",112,"TREATMENT","2012-12-24T09:30",114
"CDISCPILOT01","LB","01-703-1086",22,"TSH","Thyrotropin","OTHER","1.09","mIU/L","0.32","5","1.09",1.09,"mU/L",0.32,5,"NORMAL","Y",1,"SCREENING 1",-7,"SCREENING","2012-08-19T14:50",-14
"CDISCPILOT01","LB","01-703-1086",24,"UROBIL","Urobilinogen","URINALYSIS","0","","","","0",0,"",0,0,"NORMAL","Y",1,"SCREENING 1",-7,"SCREENING","2012-08-19T14:50",-14
"CDISCPILOT01","LB","01-703-1086",71,"UROBIL","Urobilinogen","URINALYSIS","0","","","","0",0,"",0,0,"NORMAL","",4,"WEEK 2",14,"TREATMENT","2012-09-16T11:10",15
"CDISCPILOT01","LB","01-703-1086",196,"UROBIL","Urobilinogen","URINALYSIS","0","","","","0",0,"",0,0,"NORMAL","",9,"WEEK 12",84,"TREATMENT","2012-11-27T09:30",87
"CDISCPILOT01","LB","01-703-1086",231,"UROBIL","Urobilinogen","URINALYSIS","0","","","","0",0,"",0,0,"NORMAL","",10,"WEEK 16",112,"TREATMENT","2012-12-24T09:30",114
"CDISCPILOT01","LB","01-703-1086",25,"VITB12","Vitamin B12","OTHER","498","ng/L","200","900","367.4244",367.4244,"pmol/L",148,664,"NORMAL","Y",1,"SCREENING 1",-7,"SCREENING","2012-08-19T14:50",-14
"CDISCPILOT01","LB","01-703-1096",12,"COLOR","Color","URINALYSIS","N","","","","N",0,"",0,0,"NORMAL","Y",1,"SCREENING 1",-7,"SCREENING","2012-12-05T11:30",-51
"CDISCPILOT01","LB","01-703-1096",61,"COLOR","Color","URINALYSIS","N","","","","N",0,"",0,0,"NORMAL","",1.3,"UNSCHEDULED 1.3",0,"SCREENING","2013-01-23T18:00",-2
"CDISCPILOT01","LB","01-703-1096",20,"KETONES","Ketones","URINALYSIS","0","","","","0",0,"",0,0,"NORMAL","Y",1,"SCREENING 1",-7,"SCREENING","2012-12-05T11:30",-51
"CDISCPILOT01","LB","01-703-1096",69,"KETONES","Ketones","URINALYSIS","0","","","","0",0,"",0,0,"NORMAL","",1.3,"UNSCHEDULED 1.3",0,"SCREENING","2013-01-23T18:00",-2
"CDISCPILOT01","LB","01-703-1096",27,"PH","pH","URINALYSIS","5.0","","5","8","5",5,"",5,8,"NORMAL","Y",1,"SCREENING 1",-7,"SCREENING","2012-12-05T11:30",-51
"CDISCPILOT01","LB","01-703-1096",76,"PH","pH","URINALYSIS","5.0","","5","8","5",5,"",5,8,"NORMAL","",1.3,"UNSCHEDULED 1.3",0,"SCREENING","2013-01-23T18:00",-2
"CDISCPILOT01","LB","01-703-1096",32,"SPGRAV","Specific Gravity","URINALYSIS","1.021","","1.006","1.03","1.021",1.021,"",1.006,1.03,"NORMAL","Y",1,"SCREENING 1",-7,"SCREENING","2012-12-05T11:30",-51
"CDISCPILOT01","LB","01-703-1096",81,"SPGRAV","Specific Gravity","URINALYSIS","1.027","","1.006","1.03","1.027",1.027,"",1.006,1.03,"NORMAL","",1.3,"UNSCHEDULED 1.3",0,"SCREENING","2013-01-23T18:00",-2
"CDISCPILOT01","LB","01-703-1096",33,"TSH","Thyrotropin","OTHER","0.79","mIU/L","0.32","5","0.79",0.79,"mU/L",0.32,5,"NORMAL","Y",1,"SCREENING 1",-7,"SCREENING","2012-12-05T11:30",-51
"CDISCPILOT01","LB","01-703-1096",82,"TSH","Thyrotropin","OTHER","0.86","mIU/L","0.32","5","0.86",0.86,"mU/L",0.32,5,"NORMAL","",1.3,"UNSCHEDULED 1.3",0,"SCREENING","2013-01-23T18:00",-2
"CDISCPILOT01","LB","01-703-1096",35,"UROBIL","Urobilinogen","URINALYSIS","0","","","","0",0,"",0,0,"NORMAL","Y",1,"SCREENING 1",-7,"SCREENING","2012-12-05T11:30",-51
"CDISCPILOT01","LB","01-703-1096",84,"UROBIL","Urobilinogen","URINALYSIS","0","","","","0",0,"",0,0,"NORMAL","",1.3,"UNSCHEDULED 1.3",0,"SCREENING","2013-01-23T18:00",-2
"CDISCPILOT01","LB","01-703-1096",49,"VITB12","Vitamin B12","OTHER","203","ng/L","200","900","149.7734",149.7734,"pmol/L",148,664,"NORMAL","",1.2,"UNSCHEDULED 1.2",0,"SCREENING","2012-12-29T12:00",-27
"CDISCPILOT01","LB","01-703-1096",85,"VITB12","Vitamin B12","OTHER","312","ng/L","200","900","230.1936",230.1936,"pmol/L",148,664,"NORMAL","",1.3,"UNSCHEDULED 1.3",0,"SCREENING","2013-01-23T18:00",-2
"CDISCPILOT01","LB","01-703-1100",11,"COLOR","Color","URINALYSIS","N","","","","N",0,"",0,0,"NORMAL","Y",1,"SCREENING 1",-7,"SCREENING","2012-12-13T17:30",-90
"CDISCPILOT01","LB","01-703-1100",50,"COLOR","Color","URINALYSIS","N","","","","N",0,"",0,0,"NORMAL","",1.2,"UNSCHEDULED 1.2",0,"SCREENING","2013-02-28T15:30",-13
"CDISCPILOT01","LB","01-703-1100",87,"COLOR","Color","URINALYSIS","N","","","","N",0,"",0,0,"NORMAL","",4,"WEEK 2",14,"TREATMENT","2013-03-29T10:30",17
"CDISCPILOT01","LB","01-703-1100",212,"COLOR","Color","URINALYSIS","N","","","","N",0,"",0,0,"NORMAL","",9,"WEEK 12",84,"TREATMENT","2013-06-05T15:05",85
"CDISCPILOT01","LB","01-703-1100",307,"COLOR","Color","URINALYSIS","N","","","","N",0,"",0,0,"NORMAL","",12,"WEEK 24",168,"TREATMENT","2013-08-28T10:15",169
"CDISCPILOT01","LB","01-703-1100",16,"KETONES","Ketones","URINALYSIS","0","","","","0",0,"",0,0,"NORMAL","Y",1,"SCREENING 1",-7,"SCREENING","2012-12-13T17:30",-90
"CDISCPILOT01","LB","01-703-1100",58,"KETONES","Ketones","URINALYSIS","0","","","","0",0,"",0,0,"NORMAL","",1.2,"UNSCHEDULED 1.2",0,"SCREENING","2013-02-28T15:30",-13
"CDISCPILOT01","LB","01-703-1100",95,"KETONES","Ketones","URINALYSIS","0","","","","0",0,"",0,0,"NORMAL","",4,"WEEK 2",14,"TREATMENT","2013-03-29T10:30",17
"CDISCPILOT01","LB","01-703-1100",220,"KETONES","Ketones","URINALYSIS","0","","","","0",0,"",0,0,"NORMAL","",9,"WEEK 12",84,"TREATMENT","2013-06-05T15:05",85
"CDISCPILOT01","LB","01-703-1100",315,"KETONES","Ketones","URINALYSIS","0","","","","0",0,"",0,0,"NORMAL","",12,"WEEK 24",168,"TREATMENT","2013-08-28T10:15",169
"CDISCPILOT01","LB","01-703-1100",18,"PH","pH","URINALYSIS","5.0","","5","8","5",5,"",5,8,"NORMAL","Y",1,"SCREENING 1",-7,"SCREENING","2012-12-13T17:30",-90
"CDISCPILOT01","LB","01-703-1100",65,"PH","pH","URINALYSIS","5.0","","5","8","5",5,"",5,8,"NORMAL","",1.2,"UNSCHEDULED 1.2",0,"SCREENING","2013-02-28T15:30",-13
"CDISCPILOT01","LB","01-703-1100",102,"PH","pH","URINALYSIS","5.0","","5","8","5",5,"",5,8,"NORMAL","",4,"WEEK 2",14,"TREATMENT","2013-03-29T10:30",17
"CDISCPILOT01","LB","01-703-1100",227,"PH","pH","URINALYSIS","5.0","","5","8","5",5,"",5,8,"NORMAL","",9,"WEEK 12",84,"TREATMENT","2013-06-05T15:05",85
"CDISCPILOT01","LB","01-703-1100",322,"PH","pH","URINALYSIS","5.0","","5","8","5",5,"",5,8,"NORMAL","",12,"WEEK 24",168,"TREATMENT","2013-08-28T10:15",169
"CDISCPILOT01","LB","01-703-1100",21,"SPGRAV","Specific Gravity","URINALYSIS","1.007","","1.006","1.03","1.007",1.007,"",1.006,1.03,"NORMAL","Y",1,"SCREENING 1",-7,"SCREENING","2012-12-13T17:30",-90
"CDISCPILOT01","LB","01-703-1100",70,"SPGRAV","Specific Gravity","URINALYSIS","1.019","","1.006","1.03","1.019",1.019,"",1.006,1.03,"NORMAL","",1.2,"UNSCHEDULED 1.2",0,"SCREENING","2013-02-28T15:30",-13
"CDISCPILOT01","LB","01-703-1100",107,"SPGRAV","Specific Gravity","URINALYSIS","1.016","","1.006","1.03","1.016",1.016,"",1.006,1.03,"NORMAL","",4,"WEEK 2",14,"TREATMENT","2013-03-29T10:30",17
"CDISCPILOT01","LB","01-703-1100",232,"SPGRAV","Specific Gravity","URINALYSIS","1.022","","1.006","1.03","1.022",1.022,"",1.006,1.03,"NORMAL","",9,"WEEK 12",84,"TREATMENT","2013-06-05T15:05",85
"CDISCPILOT01","LB","01-703-1100",327,"SPGRAV","Specific Gravity","URINALYSIS","1.020","","1.006","1.03","1.02",1.02,"",1.006,1.03,"NORMAL","",12,"WEEK 24",168,"TREATMENT","2013-08-28T10:15",169
"CDISCPILOT01","LB","01-703-1100",22,"TSH","Thyrotropin","OTHER","17.93","mIU/L","0.32","5","17.93",17.93,"mU/L",0.32,5,"HIGH","Y",1,"SCREENING 1",-7,"SCREENING","2012-12-13T17:30",-90
"CDISCPILOT01","LB","01-703-1100",37,"TSH","Thyrotropin","OTHER","17.32","mIU/L","0.32","5","17.32",17.32,"mU/L",0.32,5,"HIGH","",1.1,"UNSCHEDULED 1.1",0,"SCREENING","2012-12-27T14:30",-76
"CDISCPILOT01","LB","01-703-1100",71,"TSH","Thyrotropin","OTHER","2.89","mIU/L","0.32","5","2.89",2.89,"mU/L",0.32,5,"NORMAL","",1.2,"UNSCHEDULED 1.2",0,"SCREENING","2013-02-28T15:30",-13
"CDISCPILOT01","LB","01-703-1100",24,"UROBIL","Urobilinogen","URINALYSIS","0","","","","0",0,"",0,0,"NORMAL","Y",1,"SCREENING 1",-7,"SCREENING","2012-12-13T17:30",-90
"CDISCPILOT01","LB","01-703-1100",73,"UROBIL","Urobilinogen","URINALYSIS","0","","","","0",0,"",0,0,"NORMAL","",1.2,"UNSCHEDULED 1.2",0,"SCREENING","2013-02-28T15:30",-13
"CDISCPILOT01","LB","01-703-1100",109,"UROBIL","Urobilinogen","URINALYSIS","0","","","","0",0,"",0,0,"NORMAL","",4,"WEEK 2",14,"TREATMENT","2013-03-29T10:30",17
"CDISCPILOT01","LB","01-703-1100",234,"UROBIL","Urobilinogen","URINALYSIS","0","","","","0",0,"",0,0,"NORMAL","",9,"WEEK 12",84,"TREATMENT","2013-06-05T15:05",85
"CDISCPILOT01","LB","01-703-1100",329,"UROBIL","Urobilinogen","URINALYSIS","0","","","","0",0,"",0,0,"NORMAL","",12,"WEEK 24",168,"TREATMENT","2013-08-28T10:15",169
"CDISCPILOT01","LB","01-703-1100",25,"VITB12","Vitamin B12","OTHER","154","ng/L","200","900","113.6212",113.6212,"pmol/L",148,664,"LOW","Y",1,"SCREENING 1",-7,"SCREENING","2012-12-13T17:30",-90
"CDISCPILOT01","LB","01-703-1100",74,"VITB12","Vitamin B12","OTHER","429","ng/L","200","900","316.5162",316.5162,"pmol/L",148,664,"NORMAL","",1.2,"UNSCHEDULED 1.2",0,"SCREENING","2013-02-28T15:30",-13
"CDISCPILOT01","LB","01-703-1119",14,"COLOR","Color","URINALYSIS","N","","","","N",0,"",0,0,"NORMAL","",1.3,"UNSCHEDULED 1.3",0,"SCREENING","2013-02-14T13:30",-6
"CDISCPILOT01","LB","01-703-1119",50,"COLOR","Color","URINALYSIS","N","","","","N",0,"",0,0,"NORMAL","",4,"WEEK 2",14,"TREATMENT","2013-03-10T10:40",19
"CDISCPILOT01","LB","01-703-1119",175,"COLOR","Color","URINALYSIS","N","","","","N",0,"",0,0,"NORMAL","",9,"WEEK 12",84,"TREATMENT","2013-05-17T11:25",87
"CDISCPILOT01","LB","01-703-1119",210,"COLOR","Color","URINALYSIS","N","","","","N",0,"",0,0,"NORMAL","",10,"WEEK 16",112,"TREATMENT","2013-06-13T12:15",114
"CDISCPILOT01","LB","01-703-1119",22,"KETONES","Ketones","URINALYSIS","0","","","","0",0,"",0,0,"NORMAL","",1.3,"UNSCHEDULED 1.3",0,"SCREENING","2013-02-14T13:30",-6
"CDISCPILOT01","LB","01-703-1119",58,"KETONES","Ketones","URINALYSIS","0","","","","0",0,"",0,0,"NORMAL","",4,"WEEK 2",14,"TREATMENT","2013-03-10T10:40",19
"CDISCPILOT01","LB","01-703-1119",183,"KETONES","Ketones","URINALYSIS","0","","","","0",0,"",0,0,"NORMAL","",9,"WEEK 12",84,"TREATMENT","2013-05-17T11:25",87
"CDISCPILOT01","LB","01-703-1119",218,"KETONES","Ketones","URINALYSIS","0","","","","0",0,"",0,0,"NORMAL","",10,"WEEK 16",112,"TREATMENT","2013-06-13T12:15",114
"CDISCPILOT01","LB","01-703-1119",29,"PH","pH","URINALYSIS","5.0","","5","8","5",5,"",5,8,"NORMAL","",1.3,"UNSCHEDULED 1.3",0,"SCREENING","2013-02-14T13:30",-6
"CDISCPILOT01","LB","01-703-1119",65,"PH","pH","URINALYSIS","5.0","","5","8","5",5,"",5,8,"NORMAL","",4,"WEEK 2",14,"TREATMENT","2013-03-10T10:40",19
"CDISCPILOT01","LB","01-703-1119",190,"PH","pH","URINALYSIS","5.0","","5","8","5",5,"",5,8,"NORMAL","",9,"WEEK 12",84,"TREATMENT","2013-05-17T11:25",87
"CDISCPILOT01","LB","01-703-1119",225,"PH","pH","URINALYSIS","5.0","","5","8","5",5,"",5,8,"NORMAL","",10,"WEEK 16",112,"TREATMENT","2013-06-13T12:15",114
"CDISCPILOT01","LB","01-703-1119",34,"SPGRAV","Specific Gravity","URINALYSIS","1.016","","1.006","1.03","1.016",1.016,"",1.006,1.03,"NORMAL","",1.3,"UNSCHEDULED 1.3",0,"SCREENING","2013-02-14T13:30",-6
"CDISCPILOT01","LB","01-703-1119",70,"SPGRAV","Specific Gravity","URINALYSIS","1.014","","1.006","1.03","1.014",1.014,"",1.006,1.03,"NORMAL","",4,"WEEK 2",14,"TREATMENT","2013-03-10T10:40",19
"CDISCPILOT01","LB","01-703-1119",195,"SPGRAV","Specific Gravity","URINALYSIS","1.022","","1.006","1.03","1.022",1.022,"",1.006,1.03,"NORMAL","",9,"WEEK 12",84,"TREATMENT","2013-05-17T11:25",87
"CDISCPILOT01","LB","01-703-1119",230,"SPGRAV","Specific Gravity","URINALYSIS","1.027","","1.006","1.03","1.027",1.027,"",1.006,1.03,"NORMAL","",10,"WEEK 16",112,"TREATMENT","2013-06-13T12:15",114
"CDISCPILOT01","LB","01-703-1119",35,"TSH","Thyrotropin","OTHER","5.50","mIU/L","0.32","5","5.5",5.5,"mU/L",0.32,5,"HIGH","",1.3,"UNSCHEDULED 1.3",0,"SCREENING","2013-02-14T13:30",-6
"CDISCPILOT01","LB","01-703-1119",37,"UROBIL","Urobilinogen","URINALYSIS","0","","","","0",0,"",0,0,"NORMAL","",1.3,"UNSCHEDULED 1.3",0,"SCREENING","2013-02-14T13:30",-6
"CDISCPILOT01","LB","01-703-1119",72,"UROBIL","Urobilinogen","URINALYSIS","0","","","","0",0,"",0,0,"NORMAL","",4,"WEEK 2",14,"TREATMENT","2013-03-10T10:40",19
"CDISCPILOT01","LB","01-703-1119",197,"UROBIL","Urobilinogen","URINALYSIS","0","","","","0",0,"",0,0,"NORMAL","",9,"WEEK 12",84,"TREATMENT","2013-05-17T11:25",87
"CDISCPILOT01","LB","01-703-1119",232,"UROBIL","Urobilinogen","URINALYSIS","0","","","","0",0,"",0,0,"NORMAL","",10,"WEEK 16",112,"TREATMENT","2013-06-13T12:15",114
"CDISCPILOT01","LB","01-703-1119",1,"VITB12","Vitamin B12","OTHER","839","ng/L","200","900","619.0142",619.0142,"pmol/L",148,664,"NORMAL","",1.1,"UNSCHEDULED 1.1",0,"SCREENING","2013-02-13T09:00",-7
"CDISCPILOT01","LB","01-703-1119",2,"VITB12","Vitamin B12","OTHER","1003","ng/L","200","900","740.0134",740.0134,"pmol/L",148,664,"HIGH","",1.2,"UNSCHEDULED 1.2",0,"SCREENING","2013-02-16T12:30",-4
"CDISCPILOT01","LB","01-703-1175",12,"COLOR","Color","URINALYSIS","N","","","","N",0,"",0,0,"NORMAL","Y",1,"SCREENING 1",-7,"SCREENING","2013-12-10T14:25",-10
"CDISCPILOT01","LB","01-703-1175",20,"KETONES","Ketones","URINALYSIS","0","","","","0",0,"",0,0,"NORMAL","Y",1,"SCREENING 1",-7,"SCREENING","2013-12-10T14:25",-10
"CDISCPILOT01","LB","01-703-1175",27,"PH","pH","URINALYSIS","6.0","","5","8","6",6,"",5,8,"NORMAL","Y",1,"SCREENING 1",-7,"SCREENING","2013-12-10T14:25",-10
"CDISCPILOT01","LB","01-703-1175",32,"SPGRAV","Specific Gravity","URINALYSIS","1.015","","1.006","1.03","1.015",1.015,"",1.006,1.03,"NORMAL","Y",1,"SCREENING 1",-7,"SCREENING","2013-12-10T14:25",-10
"CDISCPILOT01","LB","01-703-1175",33,"TSH","Thyrotropin","OTHER","0.80","mIU/L","0.32","5","0.8",0.8,"mU/L",0.32,5,"NORMAL","Y",1,"SCREENING 1",-7,"SCREENING","2013-12-10T14:25",-10
"CDISCPILOT01","LB","01-703-1175",35,"UROBIL","Urobilinogen","URINALYSIS","0","","","","0",0,"",0,0,"NORMAL","Y",1,"SCREENING 1",-7,"SCREENING","2013-12-10T14:25",-10
"CDISCPILOT01","LB","01-703-1175",36,"VITB12","Vitamin B12","OTHER","345","ng/L","200","900","254.541",254.541,"pmol/L",148,664,"NORMAL","Y",1,"SCREENING 1",-7,"SCREENING","2013-12-10T14:25",-10
"CDISCPILOT01","LB","01-703-1182",12,"COLOR","Color","URINALYSIS","N","","","","N",0,"",0,0,"NORMAL","Y",1,"SCREENING 1",-7,"SCREENING","2013-10-01T13:25",-16
"CDISCPILOT01","LB","01-703-1182",49,"COLOR","Color","URINALYSIS","N","","","","N",0,"",0,0,"NORMAL","",4,"WEEK 2",14,"TREATMENT","2013-10-31T11:50",15
"CDISCPILOT01","LB","01-703-1182",144,"COLOR","Color","URINALYSIS","N","","","","N",0,"",0,0,"NORMAL","",8,"WEEK 8",56,"TREATMENT","2013-12-12T13:10",57
"CDISCPILOT01","LB","01-703-1182",20,"KETONES","Ketones","URINALYSIS","0","","","","0",0,"",0,0,"NORMAL","Y",1,"SCREENING 1",-7,"SCREENING","2013-10-01T13:25",-16
"CDISCPILOT01","LB","01-703-1182",57,"KETONES","Ketones","URINALYSIS","0","","","","0",0,"",0,0,"NORMAL","",4,"WEEK 2",14,"TREATMENT","2013-10-31T11:50",15
"CDISCPILOT01","LB","01-703-1182",152,"KETONES","Ketones","URINALYSIS","0","","","","0",0,"",0,0,"NORMAL","",8,"WEEK 8",56,"TREATMENT","2013-12-12T13:10",57
"CDISCPILOT01","LB","01-703-1182",27,"PH","pH","URINALYSIS","5.0","","5","8","5",5,"",5,8,"NORMAL","Y",1,"SCREENING 1",-7,"SCREENING","2013-10-01T13:25",-16
"CDISCPILOT01","LB","01-703-1182",64,"PH","pH","URINALYSIS","5.0","","5","8","5",5,"",5,8,"NORMAL","",4,"WEEK 2",14,"TREATMENT","2013-10-31T11:50",15
"CDISCPILOT01","LB","01-703-1182",159,"PH","pH","URINALYSIS","5.0","","5","8","5",5,"",5,8,"NORMAL","",8,"WEEK 8",56,"TREATMENT","2013-12-12T13:10",57
"CDISCPILOT01","LB","01-703-1182",32,"SPGRAV","Specific Gravity","URINALYSIS","1.009","","1.006","1.03","1.009",1.009,"",1.006,1.03,"NORMAL","Y",1,"SCREENING 1",-7,"SCREENING","2013-10-01T13:25",-16
"CDISCPILOT01","LB","01-703-1182",69,"SPGRAV","Specific Gravity","URINALYSIS","1.010","","1.006","1.03","1.01",1.01,"",1.006,1.03,"NORMAL","",4,"WEEK 2",14,"TREATMENT","2013-10-31T11:50",15
"CDISCPILOT01","LB","01-703-1182",164,"SPGRAV","Specific Gravity","URINALYSIS","1.010","","1.006","1.03","1.01",1.01,"",1.006,1.03,"NORMAL","",8,"WEEK 8",56,"TREATMENT","2013-12-12T13:10",57
"CDISCPILOT01","LB","01-703-1182",33,"TSH","Thyrotropin","OTHER","2.42","mIU/L","0.32","5","2.42",2.42,"mU/L",0.32,5,"NORMAL","Y",1,"SCREENING 1",-7,"SCREENING","2013-10-01T13:25",-16
"CDISCPILOT01","LB","01-703-1182",35,"UROBIL","Urobilinogen","URINALYSIS","0","","","","0",0,"",0,0,"NORMAL","Y",1,"SCREENING 1",-7,"SCREENING","2013-10-01T13:25",-16
"CDISCPILOT01","LB","01-703-1182",71,"UROBIL","Urobilinogen","URINALYSIS","0","","","","0",0,"",0,0,"NORMAL","",4,"WEEK 2",14,"TREATMENT","2013-10-31T11:50",15
"CDISCPILOT01","LB","01-703-1182",166,"UROBIL","Urobilinogen","URINALYSIS","0","","","","0",0,"",0,0,"NORMAL","",8,"WEEK 8",56,"TREATMENT","2013-12-12T13:10",57
"CDISCPILOT01","LB","01-703-1182",36,"VITB12","Vitamin B12","OTHER","438","ng/L","200","900","323.1564",323.1564,"pmol/L",148,664,"NORMAL","Y",1,"SCREENING 1",-7,"SCREENING","2013-10-01T13:25",-16
"CDISCPILOT01","LB","01-703-1197",12,"COLOR","Color","URINALYSIS","N","","","","N",0,"",0,0,"NORMAL","Y",1,"SCREENING 1",-7,"SCREENING","2013-03-07T14:30",-101
"CDISCPILOT01","LB","01-703-1197",49,"COLOR","Color","URINALYSIS","N","","","","N",0,"",0,0,"NORMAL","",1.1,"UNSCHEDULED 1.1",0,"SCREENING","2013-06-01T10:00",-15
"CDISCPILOT01","LB","01-703-1197",20,"KETONES","Ketones","URINALYSIS","0","","","","0",0,"",0,0,"NORMAL","Y",1,"SCREENING 1",-7,"SCREENING","2013-03-07T14:30",-101
"CDISCPILOT01","LB","01-703-1197",57,"KETONES","Ketones","URINALYSIS","0","","","","0",0,"",0,0,"NORMAL","",1.1,"UNSCHEDULED 1.1",0,"SCREENING","2013-06-01T10:00",-15
"CDISCPILOT01","LB","01-703-1197",27,"PH","pH","URINALYSIS","5.0","","5","8","5",5,"",5,8,"NORMAL","Y",1,"SCREENING 1",-7,"SCREENING","2013-03-07T14:30",-101
"CDISCPILOT01","LB","01-703-1197",64,"PH","pH","URINALYSIS","5.0","","5","8","5",5,"",5,8,"NORMAL","",1.1,"UNSCHEDULED 1.1",0,"SCREENING","2013-06-01T10:00",-15
"CDISCPILOT01","LB","01-703-1197",32,"SPGRAV","Specific Gravity","URINALYSIS","1.021","","1.006","1.03","1.021",1.021,"",1.006,1.03,"NORMAL","Y",1,"SCREENING 1",-7,"SCREENING","2013-03-07T14:30",-101
"CDISCPILOT01","LB","01-703-1197",69,"SPGRAV","Specific Gravity","URINALYSIS","1.019","","1.006","1.03","1.019",1.019,"",1.006,1.03,"NORMAL","",1.1,"UNSCHEDULED 1.1",0,"SCREENING","2013-06-01T10:00",-15
"CDISCPILOT01","LB","01-703-1197",33,"TSH","Thyrotropin","OTHER","0.49","mIU/L","0.32","5","0.49",0.49,"mU/L",0.32,5,"NORMAL","Y",1,"SCREENING 1",-7,"SCREENING","2013-03-07T14:30",-101
"CDISCPILOT01","LB","01-703-1197",70,"TSH","Thyrotropin","OTHER","0.60","mIU/L","0.32","5","0.6",0.6,"mU/L",0.32,5,"NORMAL","",1.1,"UNSCHEDULED 1.1",0,"SCREENING","2013-06-01T10:00",-15
"CDISCPILOT01","LB","01-703-1197",35,"UROBIL","Urobilinogen","URINALYSIS","0","","","","0",0,"",0,0,"NORMAL","Y",1,"SCREENING 1",-7,"SCREENING","2013-03-07T14:30",-101
"CDISCPILOT01","LB","01-703-1197",72,"UROBIL","Urobilinogen","URINALYSIS","0","","","","0",0,"",0,0,"NORMAL","",1.1,"UNSCHEDULED 1.1",0,"SCREENING","2013-06-01T10:00",-15
"CDISCPILOT01","LB","01-703-1197",36,"VITB12","Vitamin B12","OTHER","300","ng/L","200","900","221.34",221.34,"pmol/L",148,664,"NORMAL","Y",1,"SCREENING 1",-7,"SCREENING","2013-03-07T14:30",-101
"CDISCPILOT01","LB","01-703-1197",73,"VITB12","Vitamin B12","OTHER","295","ng/L","200","900","217.651",217.651,"pmol/L",148,664,"NORMAL","",1.1,"UNSCHEDULED 1.1",0,"SCREENING","2013-06-01T10:00",-15
"CDISCPILOT01","LB","01-703-1210",12,"COLOR","Color","URINALYSIS","N","","","","N",0,"",0,0,"NORMAL","Y",1,"SCREENING 1",-7,"SCREENING","2013-02-28T15:10",-16
"CDISCPILOT01","LB","01-703-1210",49,"COLOR","Color","URINALYSIS","N","","","","N",0,"",0,0,"NORMAL","",4,"WEEK 2",14,"TREATMENT","2013-03-30T15:10",15
"CDISCPILOT01","LB","01-703-1210",156,"COLOR","Color","URINALYSIS","N","","","","N",0,"",0,0,"NORMAL","",9,"WEEK 12",84,"TREATMENT","2013-06-07T13:00",84
"CDISCPILOT01","LB","01-703-1210",251,"COLOR","Color","URINALYSIS","N","","","","N",0,"",0,0,"NORMAL","",12,"WEEK 24",168,"TREATMENT","2013-08-24T13:00",162
"CDISCPILOT01","LB","01-703-1210",20,"KETONES","Ketones","URINALYSIS","0","","","","0",0,"",0,0,"NORMAL","Y",1,"SCREENING 1",-7,"SCREENING","2013-02-28T15:10",-16
"CDISCPILOT01","LB","01-703-1210",57,"KETONES","Ketones","URINALYSIS","0","","","","0",0,"",0,0,"NORMAL","",4,"WEEK 2",14,"TREATMENT","2013-03-30T15:10",15
"CDISCPILOT01","LB","01-703-1210",164,"KETONES","Ketones","URINALYSIS","0","","","","0",0,"",0,0,"NORMAL","",9,"WEEK 12",84,"TREATMENT","2013-06-07T13:00",84
"CDISCPILOT01","LB","01-703-1210",259,"KETONES","Ketones","URINALYSIS","0","","","","0",0,"",0,0,"NORMAL","",12,"WEEK 24",168,"TREATMENT","2013-08-24T13:00",162
"CDISCPILOT01","LB","01-703-1210",27,"PH","pH","URINALYSIS","5.0","","5","8","5",5,"",5,8,"NORMAL","Y",1,"SCREENING 1",-7,"SCREENING","2013-02-28T15:10",-16
"CDISCPILOT01","LB","01-703-1210",64,"PH","pH","URINALYSIS","5.0","","5","8","5",5,"",5,8,"NORMAL","",4,"WEEK 2",14,"TREATMENT","2013-03-30T15:10",15
"CDISCPILOT01","LB","01-703-1210",171,"PH","pH","URINALYSIS","5.0","","5","8","5",5,"",5,8,"NORMAL","",9,"WEEK 12",84,"TREATMENT","2013-06-07T13:00",84
"CDISCPILOT01","LB","01-703-1210",266,"PH","pH","URINALYSIS","5.0","","5","8","5",5,"",5,8,"NORMAL","",12,"WEEK 24",168,"TREATMENT","2013-08-24T13:00",162
"CDISCPILOT01","LB","01-703-1210",32,"SPGRAV","Specific Gravity","URINALYSIS","1.027","","1.006","1.03","1.027",1.027,"",1.006,1.03,"NORMAL","Y",1,"SCREENING 1",-7,"SCREENING","2013-02-28T15:10",-16
"CDISCPILOT01","LB","01-703-1210",69,"SPGRAV","Specific Gravity","URINALYSIS","1.016","","1.006","1.03","1.016",1.016,"",1.006,1.03,"NORMAL","",4,"WEEK 2",14,"TREATMENT","2013-03-30T15:10",15
"CDISCPILOT01","LB","01-703-1210",176,"SPGRAV","Specific Gravity","URINALYSIS","1.011","","1.006","1.03","1.011",1.011,"",1.006,1.03,"NORMAL","",9,"WEEK 12",84,"TREATMENT","2013-06-07T13:00",84
"CDISCPILOT01","LB","01-703-1210",271,"SPGRAV","Specific Gravity","URINALYSIS","1.033","","1.006","1.03","1.033",1.033,"",1.006,1.03,"HIGH","",12,"WEEK 24",168,"TREATMENT","2013-08-24T13:00",162
"CDISCPILOT01","LB","01-703-1210",33,"TSH","Thyrotropin","OTHER","3.75","mIU/L","0.32","5","3.75",3.75,"mU/L",0.32,5,"NORMAL","Y",1,"SCREENING 1",-7,"SCREENING","2013-02-28T15:10",-16
"CDISCPILOT01","LB","01-703-1210",35,"UROBIL","Urobilinogen","URINALYSIS","0","","","","0",0,"",0,0,"NORMAL","Y",1,"SCREENING 1",-7,"SCREENING","2013-02-28T15:10",-16
"CDISCPILOT01","LB","01-703-1210",71,"UROBIL","Urobilinogen","URINALYSIS","0","","","","0",0,"",0,0,"NORMAL","",4,"WEEK 2",14,"TREATMENT","2013-03-30T15:10",15
"CDISCPILOT01","LB","01-703-1210",178,"UROBIL","Urobilinogen","URINALYSIS","0","","","","0",0,"",0,0,"NORMAL","",9,"WEEK 12",84,"TREATMENT","2013-06-07T13:00",84
"CDISCPILOT01","LB","01-703-1210",273,"UROBIL","Urobilinogen","URINALYSIS","0","","","","0",0,"",0,0,"NORMAL","",12,"WEEK 24",168,"TREATMENT","2013-08-24T13:00",162
"CDISCPILOT01","LB","01-703-1210",36,"VITB12","Vitamin B12","OTHER","379","ng/L","200","900","279.6262",279.6262,"pmol/L",148,664,"NORMAL","Y",1,"SCREENING 1",-7,"SCREENING","2013-02-28T15:10",-16
"CDISCPILOT01","LB","01-703-1258",12,"COLOR","Color","URINALYSIS","N","","","","N",0,"",0,0,"NORMAL","Y",1,"SCREENING 1",-7,"SCREENING","2012-07-10T16:30",-10
"CDISCPILOT01","LB","01-703-1258",169,"COLOR","Color","URINALYSIS","N","","","","N",0,"",0,0,"NORMAL","",9,"WEEK 12",84,"TREATMENT","2012-10-09T15:30",82
"CDISCPILOT01","LB","01-703-1258",264,"COLOR","Color","URINALYSIS","N","","","","N",0,"",0,0,"NORMAL","",12,"WEEK 24",168,"TREATMENT","2012-12-31T11:30",165
"CDISCPILOT01","LB","01-703-1258",20,"KETONES","Ketones","URINALYSIS","0","","","","0",0,"",0,0,"NORMAL","Y",1,"SCREENING 1",-7,"SCREENING","2012-07-10T16:30",-10
"CDISCPILOT01","LB","01-703-1258",177,"KETONES","Ketones","URINALYSIS","0","","","","0",0,"",0,0,"NORMAL","",9,"WEEK 12",84,"TREATMENT","2012-10-09T15:30",82
"CDISCPILOT01","LB","01-703-1258",272,"KETONES","Ketones","URINALYSIS","0","","","","0",0,"",0,0,"NORMAL","",12,"WEEK 24",168,"TREATMENT","2012-12-31T11:30",165
"CDISCPILOT01","LB","01-703-1258",27,"PH","pH","URINALYSIS","5.0","","5","8","5",5,"",5,8,"NORMAL","Y",1,"SCREENING 1",-7,"SCREENING","2012-07-10T16:30",-10
"CDISCPILOT01","LB","01-703-1258",184,"PH","pH","URINALYSIS","7.0","","5","8","7",7,"",5,8,"NORMAL","",9,"WEEK 12",84,"TREATMENT","2012-10-09T15:30",82
"CDISCPILOT01","LB","01-703-1258",279,"PH","pH","URINALYSIS","7.0","","5","8","7",7,"",5,8,"NORMAL","",12,"WEEK 24",168,"TREATMENT","2012-12-31T11:30",165
"CDISCPILOT01","LB","01-703-1258",32,"SPGRAV","Specific Gravity","URINALYSIS","1.032","","1.006","1.03","1.032",1.032,"",1.006,1.03,"HIGH","Y",1,"SCREENING 1",-7,"SCREENING","2012-07-10T16:30",-10
"CDISCPILOT01","LB","01-703-1258",189,"SPGRAV","Specific Gravity","URINALYSIS","1.020","","1.006","1.03","1.02",1.02,"",1.006,1.03,"NORMAL","",9,"WEEK 12",84,"TREATMENT","2012-10-09T15:30",82
"CDISCPILOT01","LB","01-703-1258",284,"SPGRAV","Specific Gravity","URINALYSIS","1.020","","1.006","1.03","1.02",1.02,"",1.006,1.03,"NORMAL","",12,"WEEK 24",168,"TREATMENT","2012-12-31T11:30",165
"CDISCPILOT01","LB","01-703-1258",33,"TSH","Thyrotropin","OTHER","2.19","mIU/L","0.32","5","2.19",2.19,"mU/L",0.32,5,"NORMAL","Y",1,"SCREENING 1",-7,"SCREENING","2012-07-10T16:30",-10
"CDISCPILOT01","LB","01-703-1258",35,"UROBIL","Urobilinogen","URINALYSIS","0","","","","0",0,"",0,0,"NORMAL","Y",1,"SCREENING 1",-7,"SCREENING","2012-07-10T16:30",-10
"CDISCPILOT01","LB","01-703-1258",191,"UROBIL","Urobilinogen","URINALYSIS","0","","","","0",0,"",0,0,"NORMAL","",9,"WEEK 12",84,"TREATMENT","2012-10-09T15:30",82
"CDISCPILOT01","LB","01-703-1258",286,"UROBIL","Urobilinogen","URINALYSIS","0","","","","0",0,"",0,0,"NORMAL","",12,"WEEK 24",168,"TREATMENT","2012-12-31T11:30",165
"CDISCPILOT01","LB","01-703-1258",36,"VITB12","Vitamin B12","OTHER","476","ng/L","200","900","351.1928",351.1928,"pmol/L",148,664,"NORMAL","Y",1,"SCREENING 1",-7,"SCREENING","2012-07-10T16:30",-10
"CDISCPILOT01","LB","01-703-1279",12,"COLOR","Color","URINALYSIS","N","","","","N",0,"",0,0,"NORMAL","Y",1,"SCREENING 1",-7,"SCREENING","2013-04-27T11:00",-16
"CDISCPILOT01","LB","01-703-1279",20,"KETONES","Ketones","URINALYSIS","0","","","","0",0,"",0,0,"NORMAL","Y",1,"SCREENING 1",-7,"SCREENING","2013-04-27T11:00",-16
"CDISCPILOT01","LB","01-703-1279",27,"PH","pH","URINALYSIS","5.0","","5","8","5",5,"",5,8,"NORMAL","Y",1,"SCREENING 1",-7,"SCREENING","2013-04-27T11:00",-16
"CDISCPILOT01","LB","01-703-1279",32,"SPGRAV","Specific Gravity","URINALYSIS","1.021","","1.006","1.03","1.021",1.021,"",1.006,1.03,"NORMAL","Y",1,"SCREENING 1",-7,"SCREENING","2013-04-27T11:00",-16
"CDISCPILOT01","LB","01-703-1279",33,"TSH","Thyrotropin","OTHER","0.40","mIU/L","0.32","5","0.4",0.4,"mU/L",0.32,5,"NORMAL","Y",1,"SCREENING 1",-7,"SCREENING","2013-04-27T11:00",-16
"CDISCPILOT01","LB","01-703-1279",35,"UROBIL","Urobilinogen","URINALYSIS","0","","","","0",0,"",0,0,"NORMAL","Y",1,"SCREENING 1",-7,"SCREENING","2013-04-27T11:00",-16
"CDISCPILOT01","LB","01-703-1279",36,"VITB12","Vitamin B12","OTHER","518","ng/L","200","900","382.1804",382.1804,"pmol/L",148,664,"NORMAL","Y",1,"SCREENING 1",-7,"SCREENING","2013-04-27T11:00",-16
"CDISCPILOT01","LB","01-703-1295",12,"COLOR","Color","URINALYSIS","N","","","","N",0,"",0,0,"NORMAL","Y",1,"SCREENING 1",-7,"SCREENING","2013-10-24T12:10",-28
"CDISCPILOT01","LB","01-703-1295",77,"COLOR","Color","URINALYSIS","N","","","","N",0,"",0,0,"NORMAL","",4,"WEEK 2",14,"TREATMENT","2013-12-05T12:30",15
"CDISCPILOT01","LB","01-703-1295",202,"COLOR","Color","URINALYSIS","N","","","","N",0,"",0,0,"NORMAL","",9,"WEEK 12",84,"TREATMENT","2014-02-18T11:30",90
"CDISCPILOT01","LB","01-703-1295",267,"COLOR","Color","URINALYSIS","N","","","","N",0,"",0,0,"NORMAL","",11,"WEEK 20",140,"TREATMENT","2014-05-19T14:45",180
"CDISCPILOT01","LB","01-703-1295",20,"KETONES","Ketones","URINALYSIS","0","","","","0",0,"",0,0,"NORMAL","Y",1,"SCREENING 1",-7,"SCREENING","2013-10-24T12:10",-28
"CDISCPILOT01","LB","01-703-1295",85,"KETONES","Ketones","URINALYSIS","0","","","","0",0,"",0,0,"NORMAL","",4,"WEEK 2",14,"TREATMENT","2013-12-05T12:30",15
"CDISCPILOT01","LB","01-703-1295",210,"KETONES","Ketones","URINALYSIS","0","","","","0",0,"",0,0,"NORMAL","",9,"WEEK 12",84,"TREATMENT","2014-02-18T11:30",90
"CDISCPILOT01","LB","01-703-1295",275,"KETONES","Ketones","URINALYSIS","0","","","","0",0,"",0,0,"NORMAL","",11,"WEEK 20",140,"TREATMENT","2014-05-19T14:45",180
"CDISCPILOT01","LB","01-703-1295",27,"PH","pH","URINALYSIS","5.0","","5","8","5",5,"",5,8,"NORMAL","Y",1,"SCREENING 1",-7,"SCREENING","2013-10-24T12:10",-28
"CDISCPILOT01","LB","01-703-1295",92,"PH","pH","URINALYSIS","6.0","","5","8","6",6,"",5,8,"NORMAL","",4,"WEEK 2",14,"TREATMENT","2013-12-05T12:30",15
"CDISCPILOT01","LB","01-703-1295",217,"PH","pH","URINALYSIS","5.0","","5","8","5",5,"",5,8,"NORMAL","",9,"WEEK 12",84,"TREATMENT","2014-02-18T11:30",90
"CDISCPILOT01","LB","01-703-1295",282,"PH","pH","URINALYSIS","5.0","","5","8","5",5,"",5,8,"NORMAL","",11,"WEEK 20",140,"TREATMENT","2014-05-19T14:45",180
"CDISCPILOT01","LB","01-703-1295",32,"SPGRAV","Specific Gravity","URINALYSIS","1.020","","1.006","1.03","1.02",1.02,"",1.006,1.03,"NORMAL","Y",1,"SCREENING 1",-7,"SCREENING","2013-10-24T12:10",-28
"CDISCPILOT01","LB","01-703-1295",97,"SPGRAV","Specific Gravity","URINALYSIS","1.020","","1.006","1.03","1.02",1.02,"",1.006,1.03,"NORMAL","",4,"WEEK 2",14,"TREATMENT","2013-12-05T12:30",15
"CDISCPILOT01","LB","01-703-1295",222,"SPGRAV","Specific Gravity","URINALYSIS","1.021","","1.006","1.03","1.021",1.021,"",1.006,1.03,"NORMAL","",9,"WEEK 12",84,"TREATMENT","2014-02-18T11:30",90
"CDISCPILOT01","LB","01-703-1295",287,"SPGRAV","Specific Gravity","URINALYSIS","1.023","","1.006","1.03","1.023",1.023,"",1.006,1.03,"NORMAL","",11,"WEEK 20",140,"TREATMENT","2014-05-19T14:45",180
"CDISCPILOT01","LB","01-703-1295",33,"TSH","Thyrotropin","OTHER","1.42","mIU/L","0.32","5","1.42",1.42,"mU/L",0.32,5,"NORMAL","Y",1,"SCREENING 1",-7,"SCREENING","2013-10-24T12:10",-28
"CDISCPILOT01","LB","01-703-1295",35,"UROBIL","Urobilinogen","URINALYSIS","0","","","","0",0,"",0,0,"NORMAL","Y",1,"SCREENING 1",-7,"SCREENING","2013-10-24T12:10",-28
"CDISCPILOT01","LB","01-703-1295",99,"UROBIL","Urobilinogen","URINALYSIS","0","","","","0",0,"",0,0,"NORMAL","",4,"WEEK 2",14,"TREATMENT","2013-12-05T12:30",15
"CDISCPILOT01","LB","01-703-1295",224,"UROBIL","Urobilinogen","URINALYSIS","0","","","","0",0,"",0,0,"NORMAL","",9,"WEEK 12",84,"TREATMENT","2014-02-18T11:30",90
"CDISCPILOT01","LB","01-703-1295",289,"UROBIL","Urobilinogen","URINALYSIS","0","","","","0",0,"",0,0,"NORMAL","",11,"WEEK 20",140,"TREATMENT","2014-05-19T14:45",180
"CDISCPILOT01","LB","01-703-1295",36,"VITB12","Vitamin B12","OTHER","678","ng/L","200","900","500.2284",500.2284,"pmol/L",148,664,"NORMAL","Y",1,"SCREENING 1",-7,"SCREENING","2013-10-24T12:10",-28
"CDISCPILOT01","LB","01-703-1295",64,"VITB12","Vitamin B12","OTHER","516","ng/L","200","900","380.7048",380.7048,"pmol/L",148,664,"NORMAL","",1.1,"UNSCHEDULED 1.1",0,"SCREENING","2013-11-04T13:30",-17
"CDISCPILOT01","LB","01-703-1299",12,"COLOR","Color","URINALYSIS","N","","","","N",0,"",0,0,"NORMAL","Y",1,"SCREENING 1",-7,"SCREENING","2012-09-04T13:30",-8
"CDISCPILOT01","LB","01-703-1299",49,"COLOR","Color","URINALYSIS","N","","","","N",0,"",0,0,"NORMAL","",4,"WEEK 2",14,"TREATMENT","2012-09-28T11:00",17
"CDISCPILOT01","LB","01-703-1299",174,"COLOR","Color","URINALYSIS","N","","","","N",0,"",0,0,"NORMAL","",9,"WEEK 12",84,"TREATMENT","2012-12-05T15:00",85
"CDISCPILOT01","LB","01-703-1299",269,"COLOR","Color","URINALYSIS","N","","","","N",0,"",0,0,"NORMAL","",12,"WEEK 24",168,"TREATMENT","2013-03-01T13:40",171
"CDISCPILOT01","LB","01-703-1299",20,"KETONES","Ketones","URINALYSIS","0","","","","0",0,"",0,0,"NORMAL","Y",1,"SCREENING 1",-7,"SCREENING","2012-09-04T13:30",-8
"CDISCPILOT01","LB","01-703-1299",57,"KETONES","Ketones","URINALYSIS","0","","","","0",0,"",0,0,"NORMAL","",4,"WEEK 2",14,"TREATMENT","2012-09-28T11:00",17
"CDISCPILOT01","LB","01-703-1299",182,"KETONES","Ketones","URINALYSIS","0","","","","0",0,"",0,0,"NORMAL","",9,"WEEK 12",84,"TREATMENT","2012-12-05T15:00",85
"CDISCPILOT01","LB","01-703-1299",277,"KETONES","Ketones","URINALYSIS","0","","","","0",0,"",0,0,"NORMAL","",12,"WEEK 24",168,"TREATMENT","2013-03-01T13:40",171
"CDISCPILOT01","LB","01-703-1299",27,"PH","pH","URINALYSIS","6.0","","5","8","6",6,"",5,8,"NORMAL","Y",1,"SCREENING 1",-7,"SCREENING","2012-09-04T13:30",-8
"CDISCPILOT01","LB","01-703-1299",64,"PH","pH","URINALYSIS","5.0","","5","8","5",5,"",5,8,"NORMAL","",4,"WEEK 2",14,"TREATMENT","2012-09-28T11:00",17
"CDISCPILOT01","LB","01-703-1299",189,"PH","pH","URINALYSIS","5.0","","5","8","5",5,"",5,8,"NORMAL","",9,"WEEK 12",84,"TREATMENT","2012-12-05T15:00",85
"CDISCPILOT01","LB","01-703-1299",284,"PH","pH","URINALYSIS","5.0","","5","8","5",5,"",5,8,"NORMAL","",12,"WEEK 24",168,"TREATMENT","2013-03-01T13:40",171
"CDISCPILOT01","LB","01-703-1299",32,"SPGRAV","Specific Gravity","URINALYSIS","1.020","","1.006","1.03","1.02",1.02,"",1.006,1.03,"NORMAL","Y",1,"SCREENING 1",-7,"SCREENING","2012-09-04T13:30",-8
"CDISCPILOT01","LB","01-703-1299",69,"SPGRAV","Specific Gravity","URINALYSIS","1.026","","1.006","1.03","1.026",1.026,"",1.006,1.03,"NORMAL","",4,"WEEK 2",14,"TREATMENT","2012-09-28T11:00",17
"CDISCPILOT01","LB","01-703-1299",194,"SPGRAV","Specific Gravity","URINALYSIS","1.026","","1.006","1.03","1.026",1.026,"",1.006,1.03,"NORMAL","",9,"WEEK 12",84,"TREATMENT","2012-12-05T15:00",85
"CDISCPILOT01","LB","01-703-1299",289,"SPGRAV","Specific Gravity","URINALYSIS","1.028","","1.006","1.03","1.028",1.028,"",1.006,1.03,"NORMAL","",12,"WEEK 24",168,"TREATMENT","2013-03-01T13:40",171
"CDISCPILOT01","LB","01-703-1299",33,"TSH","Thyrotropin","OTHER","1.33","mIU/L","0.32","5","1.33",1.33,"mU/L",0.32,5,"NORMAL","Y",1,"SCREENING 1",-7,"SCREENING","2012-09-04T13:30",-8
"CDISCPILOT01","LB","01-703-1299",35,"UROBIL","Urobilinogen","URINALYSIS","0","","","","0",0,"",0,0,"NORMAL","Y",1,"SCREENING 1",-7,"SCREENING","2012-09-04T13:30",-8
"CDISCPILOT01","LB","01-703-1299",71,"UROBIL","Urobilinogen","URINALYSIS","0","","","","0",0,"",0,0,"NORMAL","",4,"WEEK 2",14,"TREATMENT","2012-09-28T11:00",17
"CDISCPILOT01","LB","01-703-1299",196,"UROBIL","Urobilinogen","URINALYSIS","0","","","","0",0,"",0,0,"NORMAL","",9,"WEEK 12",84,"TREATMENT","2012-12-05T15:00",85
"CDISCPILOT01","LB","01-703-1299",291,"UROBIL","Urobilinogen","URINALYSIS","0","","","","0",0,"",0,0,"NORMAL","",12,"WEEK 24",168,"TREATMENT","2013-03-01T13:40",171
"CDISCPILOT01","LB","01-703-1299",36,"VITB12","Vitamin B12","OTHER","293","ng/L","200","900","216.1754",216.1754,"pmol/L",148,664,"NORMAL","Y",1,"SCREENING 1",-7,"SCREENING","2012-09-04T13:30",-8
"CDISCPILOT01","LB","01-703-1335",10,"COLOR","Color","URINALYSIS","N","","","","N",0,"",0,0,"NORMAL","Y",1,"SCREENING 1",-7,"SCREENING","2013-12-28T16:10",-79
"CDISCPILOT01","LB","01-703-1335",32,"COLOR","Color","URINALYSIS","N","","","","N",0,"",0,0,"NORMAL","",1.1,"UNSCHEDULED 1.1",0,"SCREENING","2014-02-21T13:00",-24
"CDISCPILOT01","LB","01-703-1335",99,"COLOR","Color","URINALYSIS","N","","","","N",0,"",0,0,"NORMAL","",5,"WEEK 4",28,"TREATMENT","2014-04-13T10:00",28
"CDISCPILOT01","LB","01-703-1335",134,"COLOR","Color","URINALYSIS","N","","","","N",0,"",0,0,"NORMAL","",7,"WEEK 6",42,"TREATMENT","2014-05-24T12:15",69
"CDISCPILOT01","LB","01-703-1335",14,"KETONES","Ketones","URINALYSIS","0","","","","0",0,"",0,0,"NORMAL","Y",1,"SCREENING 1",-7,"SCREENING","2013-12-28T16:10",-79
"CDISCPILOT01","LB","01-703-1335",40,"KETONES","Ketones","URINALYSIS","0","","","","0",0,"",0,0,"NORMAL","",1.1,"UNSCHEDULED 1.1",0,"SCREENING","2014-02-21T13:00",-24
"CDISCPILOT01","LB","01-703-1335",107,"KETONES","Ketones","URINALYSIS","0","","","","0",0,"",0,0,"NORMAL","",5,"WEEK 4",28,"TREATMENT","2014-04-13T10:00",28
"CDISCPILOT01","LB","01-703-1335",142,"KETONES","Ketones","URINALYSIS","0","","","","0",0,"",0,0,"NORMAL","",7,"WEEK 6",42,"TREATMENT","2014-05-24T12:15",69
"CDISCPILOT01","LB","01-703-1335",15,"PH","pH","URINALYSIS","5.0","","5","8","5",5,"",5,8,"NORMAL","Y",1,"SCREENING 1",-7,"SCREENING","2013-12-28T16:10",-79
"CDISCPILOT01","LB","01-703-1335",47,"PH","pH","URINALYSIS","5.0","","5","8","5",5,"",5,8,"NORMAL","",1.1,"UNSCHEDULED 1.1",0,"SCREENING","2014-02-21T13:00",-24
"CDISCPILOT01","LB","01-703-1335",114,"PH","pH","URINALYSIS","5.0","","5","8","5",5,"",5,8,"NORMAL","",5,"WEEK 4",28,"TREATMENT","2014-04-13T10:00",28
"CDISCPILOT01","LB","01-703-1335",149,"PH","pH","URINALYSIS","5.0","","5","8","5",5,"",5,8,"NORMAL","",7,"WEEK 6",42,"TREATMENT","2014-05-24T12:15",69
"CDISCPILOT01","LB","01-703-1335",18,"SPGRAV","Specific Gravity","URINALYSIS","1.019","","1.006","1.03","1.019",1.019,"",1.006,1.03,"NORMAL","Y",1,"SCREENING 1",-7,"SCREENING","2013-12-28T16:10",-79
"CDISCPILOT01","LB","01-703-1335",52,"SPGRAV","Specific Gravity","URINALYSIS","1.011","","1.006","1.03","1.011",1.011,"",1.006,1.03,"NORMAL","",1.1,"UNSCHEDULED 1.1",0,"SCREENING","2014-02-21T13:00",-24
"CDISCPILOT01","LB","01-703-1335",119,"SPGRAV","Specific Gravity","URINALYSIS","1.026","","1.006","1.03","1.026",1.026,"",1.006,1.03,"NORMAL","",5,"WEEK 4",28,"TREATMENT","2014-04-13T10:00",28
"CDISCPILOT01","LB","01-703-1335",154,"SPGRAV","Specific Gravity","URINALYSIS","1.016","","1.006","1.03","1.016",1.016,"",1.006,1.03,"NORMAL","",7,"WEEK 6",42,"TREATMENT","2014-05-24T12:15",69
"CDISCPILOT01","LB","01-703-1335",53,"TSH","Thyrotropin","OTHER","0.87","mIU/L","0.32","5","0.87",0.87,"mU/L",0.32,5,"NORMAL","",1.1,"UNSCHEDULED 1.1",0,"SCREENING","2014-02-21T13:00",-24
"CDISCPILOT01","LB","01-703-1335",20,"UROBIL","Urobilinogen","URINALYSIS","0","","","","0",0,"",0,0,"NORMAL","Y",1,"SCREENING 1",-7,"SCREENING","2013-12-28T16:10",-79
"CDISCPILOT01","LB","01-703-1335",55,"UROBIL","Urobilinogen","URINALYSIS","0","","","","0",0,"",0,0,"NORMAL","",1.1,"UNSCHEDULED 1.1",0,"SCREENING","2014-02-21T13:00",-24
"CDISCPILOT01","LB","01-703-1335",121,"UROBIL","Urobilinogen","URINALYSIS","0","","","","0",0,"",0,0,"NORMAL","",5,"WEEK 4",28,"TREATMENT","2014-04-13T10:00",28
"CDISCPILOT01","LB","01-703-1335",156,"UROBIL","Urobilinogen","URINALYSIS","0","","","","0",0,"",0,0,"NORMAL","",7,"WEEK 6",42,"TREATMENT","2014-05-24T12:15",69
"CDISCPILOT01","LB","01-703-1335",56,"VITB12","Vitamin B12","OTHER","287","ng/L","200","900","211.7486",211.7486,"pmol/L",148,664,"NORMAL","",1.1,"UNSCHEDULED 1.1",0,"SCREENING","2014-02-21T13:00",-24
"CDISCPILOT01","LB","01-703-1379",12,"COLOR","Color","URINALYSIS","N","","","","N",0,"",0,0,"NORMAL","Y",1,"SCREENING 1",-7,"SCREENING","2013-09-12T17:00",-10
"CDISCPILOT01","LB","01-703-1379",169,"COLOR","Color","URINALYSIS","N","","","","N",0,"",0,0,"NORMAL","",9,"WEEK 12",84,"TREATMENT","2013-12-15T14:30",85
"CDISCPILOT01","LB","01-703-1379",264,"COLOR","Color","URINALYSIS","N","","","","N",0,"",0,0,"NORMAL","",12,"WEEK 24",168,"TREATMENT","2014-03-08T11:30",168
"CDISCPILOT01","LB","01-703-1379",20,"KETONES","Ketones","URINALYSIS","0","","","","0",0,"",0,0,"NORMAL","Y",1,"SCREENING 1",-7,"SCREENING","2013-09-12T17:00",-10
"CDISCPILOT01","LB","01-703-1379",177,"KETONES","Ketones","URINALYSIS","0","","","","0",0,"",0,0,"NORMAL","",9,"WEEK 12",84,"TREATMENT","2013-12-15T14:30",85
"CDISCPILOT01","LB","01-703-1379",272,"KETONES","Ketones","URINALYSIS","0","","","","0",0,"",0,0,"NORMAL","",12,"WEEK 24",168,"TREATMENT","2014-03-08T11:30",168
"CDISCPILOT01","LB","01-703-1379",27,"PH","pH","URINALYSIS","5.0","","5","8","5",5,"",5,8,"NORMAL","Y",1,"SCREENING 1",-7,"SCREENING","2013-09-12T17:00",-10
"CDISCPILOT01","LB","01-703-1379",184,"PH","pH","URINALYSIS","6.0","","5","8","6",6,"",5,8,"NORMAL","",9,"WEEK 12",84,"TREATMENT","2013-12-15T14:30",85
"CDISCPILOT01","LB","01-703-1379",279,"PH","pH","URINALYSIS","5.0","","5","8","5",5,"",5,8,"NORMAL","",12,"WEEK 24",168,"TREATMENT","2014-03-08T11:30",168
"CDISCPILOT01","LB","01-703-1379",32,"SPGRAV","Specific Gravity","URINALYSIS","1.004","","1.006","1.03","1.004",1.004,"",1.006,1.03,"LOW","Y",1,"SCREENING 1",-7,"SCREENING","2013-09-12T17:00",-10
"CDISCPILOT01","LB","01-703-1379",189,"SPGRAV","Specific Gravity","URINALYSIS","1.005","","1.006","1.03","1.005",1.005,"",1.006,1.03,"LOW","",9,"WEEK 12",84,"TREATMENT","2013-12-15T14:30",85
"CDISCPILOT01","LB","01-703-1379",284,"SPGRAV","Specific Gravity","URINALYSIS","1.022","","1.006","1.03","1.022",1.022,"",1.006,1.03,"NORMAL","",12,"WEEK 24",168,"TREATMENT","2014-03-08T11:30",168
"CDISCPILOT01","LB","01-703-1379",33,"TSH","Thyrotropin","OTHER","0.36","mIU/L","0.32","5","0.36",0.36,"mU/L",0.32,5,"NORMAL","Y",1,"SCREENING 1",-7,"SCREENING","2013-09-12T17:00",-10
"CDISCPILOT01","LB","01-703-1379",35,"UROBIL","Urobilinogen","URINALYSIS","0","","","","0",0,"",0,0,"NORMAL","Y",1,"SCREENING 1",-7,"SCREENING","2013-09-12T17:00",-10
"CDISCPILOT01","LB","01-703-1379",191,"UROBIL","Urobilinogen","URINALYSIS","0","","","","0",0,"",0,0,"NORMAL","",9,"WEEK 12",84,"TREATMENT","2013-12-15T14:30",85
"CDISCPILOT01","LB","01-703-1379",286,"UROBIL","Urobilinogen","URINALYSIS","0","","","","0",0,"",0,0,"NORMAL","",12,"WEEK 24",168,"TREATMENT","2014-03-08T11:30",168
"CDISCPILOT01","LB","01-703-1379",36,"VITB12","Vitamin B12","OTHER","387","ng/L","200","900","285.5286",285.5286,"pmol/L",148,664,"NORMAL","Y",1,"SCREENING 1",-7,"SCREENING","2013-09-12T17:00",-10
"CDISCPILOT01","LB","01-703-1403",12,"COLOR","Color","URINALYSIS","N","","","","N",0,"",0,0,"NORMAL","Y",1,"SCREENING 1",-7,"SCREENING","2012-11-28T10:35",-14
"CDISCPILOT01","LB","01-703-1403",20,"KETONES","Ketones","URINALYSIS","0","","","","0",0,"",0,0,"NORMAL","Y",1,"SCREENING 1",-7,"SCREENING","2012-11-28T10:35",-14
"CDISCPILOT01","LB","01-703-1403",27,"PH","pH","URINALYSIS","5.0","","5","8","5",5,"",5,8,"NORMAL","Y",1,"SCREENING 1",-7,"SCREENING","2012-11-28T10:35",-14
"CDISCPILOT01","LB","01-703-1403",32,"SPGRAV","Specific Gravity","URINALYSIS","1.017","","1.006","1.03","1.017",1.017,"",1.006,1.03,"NORMAL","Y",1,"SCREENING 1",-7,"SCREENING","2012-11-28T10:35",-14
"CDISCPILOT01","LB","01-703-1403",33,"TSH","Thyrotropin","OTHER","1.46","mIU/L","0.32","5","1.46",1.46,"mU/L",0.32,5,"NORMAL","Y",1,"SCREENING 1",-7,"SCREENING","2012-11-28T10:35",-14
"CDISCPILOT01","LB","01-703-1403",35,"UROBIL","Urobilinogen","URINALYSIS","0","","","","0",0,"",0,0,"NORMAL","Y",1,"SCREENING 1",-7,"SCREENING","2012-11-28T10:35",-14
"CDISCPILOT01","LB","01-703-1403",36,"VITB12","Vitamin B12","OTHER","282","ng/L","200","900","208.0596",208.0596,"pmol/L",148,664,"NORMAL","Y",1,"SCREENING 1",-7,"SCREENING","2012-11-28T10:35",-14
"CDISCPILOT01","LB","01-703-1439",12,"COLOR","Color","URINALYSIS","N","","","","N",0,"",0,0,"NORMAL","Y",1,"SCREENING 1",-7,"SCREENING","2014-02-27T10:45",-13
"CDISCPILOT01","LB","01-703-1439",49,"COLOR","Color","URINALYSIS","N","","","","N",0,"",0,0,"NORMAL","",4,"WEEK 2",14,"TREATMENT","2014-03-26T12:40",15
"CDISCPILOT01","LB","01-703-1439",174,"COLOR","Color","URINALYSIS","N","","","","N",0,"",0,0,"NORMAL","",9,"WEEK 12",84,"TREATMENT","2014-06-02T15:10",83
"CDISCPILOT01","LB","01-703-1439",272,"COLOR","Color","URINALYSIS","N","","","","N",0,"",0,0,"NORMAL","",12,"WEEK 24",168,"TREATMENT","2014-08-28T11:15",170
"CDISCPILOT01","LB","01-703-1439",20,"KETONES","Ketones","URINALYSIS","0","","","","0",0,"",0,0,"NORMAL","Y",1,"SCREENING 1",-7,"SCREENING","2014-02-27T10:45",-13
"CDISCPILOT01","LB","01-703-1439",57,"KETONES","Ketones","URINALYSIS","0","","","","0",0,"",0,0,"NORMAL","",4,"WEEK 2",14,"TREATMENT","2014-03-26T12:40",15
"CDISCPILOT01","LB","01-703-1439",182,"KETONES","Ketones","URINALYSIS","0","","","","0",0,"",0,0,"NORMAL","",9,"WEEK 12",84,"TREATMENT","2014-06-02T15:10",83
"CDISCPILOT01","LB","01-703-1439",280,"KETONES","Ketones","URINALYSIS","0","","","","0",0,"",0,0,"NORMAL","",12,"WEEK 24",168,"TREATMENT","2014-08-28T11:15",170
"CDISCPILOT01","LB","01-703-1439",27,"PH","pH","URINALYSIS","6.0","","5","8","6",6,"",5,8,"NORMAL","Y",1,"SCREENING 1",-7,"SCREENING","2014-02-27T10:45",-13
"CDISCPILOT01","LB","01-703-1439",64,"PH","pH","URINALYSIS","6.0","","5","8","6",6,"",5,8,"NORMAL","",4,"WEEK 2",14,"TREATMENT","2014-03-26T12:40",15
"CDISCPILOT01","LB","01-703-1439",189,"PH","pH","URINALYSIS","5.0","","5","8","5",5,"",5,8,"NORMAL","",9,"WEEK 12",84,"TREATMENT","2014-06-02T15:10",83
"CDISCPILOT01","LB","01-703-1439",288,"PH","pH","URINALYSIS","5.0","","5","8","5",5,"",5,8,"NORMAL","",12,"WEEK 24",168,"TREATMENT","2014-08-28T11:15",170
"CDISCPILOT01","LB","01-703-1439",32,"SPGRAV","Specific Gravity","URINALYSIS","1.018","","1.006","1.03","1.018",1.018,"",1.006,1.03,"NORMAL","Y",1,"SCREENING 1",-7,"SCREENING","2014-02-27T10:45",-13
"CDISCPILOT01","LB","01-703-1439",69,"SPGRAV","Specific Gravity","URINALYSIS","1.021","","1.006","1.03","1.021",1.021,"",1.006,1.03,"NORMAL","",4,"WEEK 2",14,"TREATMENT","2014-03-26T12:40",15
