STUDYID	DOMAIN	USUBJID	AESEQ	AESPID	AETERM	AELLT	AELLTCD	AEDECOD	AEPTCD	AEHLT	AEHLTCD	AEHLGT	AEHLGTCD	AEBODSYS	AEBDSYCD	AESOC	AESOCCD	AESEV	AESER	AEACN	AEREL	AEOUT	AESCAN	AESCONG	AESDISAB	AESDTH	AESHOSP	AESLIFE	AESOD	EPOCH	AEDTC	AESTDTC	AEENDTC	AEDY	AESTDY	AEENDY
CDISCPILOT01	AE	01-701-1015	1	E07	APPLICATION SITE ERYTHEMA	APPLICATION SITE REDNESS	0	APPLICATION SITE ERYTHEMA	0	HLT_0617	0	HLGT_0152	0	GENERAL DISORDERS AND ADMINISTRATION SITE CONDITIONS	0	GENERAL DISORDERS AND ADMINISTRATION SITE CONDITIONS	0	MILD	N		PROBABLE	NOT RECOVERED/NOT RESOLVED	N	N	N	N	N	N	N	TREATMENT	1/16/2014	1/3/2014		15	2	0
CDISCPILOT01	AE	01-701-1015	2	E08	APPLICATION SITE PRURITUS	APPLICATION SITE ITCHING	0	APPLICATION SITE PRURITUS	0	HLT_0317	0	HLGT_0338	0	GENERAL DISORDERS AND ADMINISTRATION SITE CONDITIONS	0	GENERAL DISORDERS AND ADMINISTRATION SITE CONDITIONS	0	MILD	N		PROBABLE	NOT RECOVERED/NOT RESOLVED	N	N	N	N	N	N	N	TREATMENT	1/16/2014	1/3/2014		15	2	0
CDISCPILOT01	AE	01-701-1015	3	E06	DIARRHOEA	DIARRHEA	0	DIARRHOEA	0	HLT_0148	0	HLGT_0588	0	GASTROINTESTINAL DISORDERS	0	GASTROINTESTINAL DISORDERS	0	MILD	N		REMOTE	RECOVERED/RESOLVED	N	N	N	N	N	N	N	TREATMENT	1/16/2014	1/9/2014	1/11/2014	15	8	10
CDISCPILOT01	AE	01-701-1023	3	E10	ATRIOVENTRICULAR BLOCK SECOND DEGREE	AV BLOCK SECOND DEGREE	0	ATRIOVENTRICULAR BLOCK SECOND DEGREE	0	HLT_0415	0	HLGT_0086	0	CARDIAC DISORDERS	0	CARDIAC DISORDERS	0	MILD	N		POSSIBLE	NOT RECOVERED/NOT RESOLVED	N	N	N	N	N	N	N	TREATMENT	8/27/2012	8/26/2012		23	22	0
CDISCPILOT01	AE	01-701-1023	2	E09	ERYTHEMA	LOCALIZED ERYTHEMA	0	ERYTHEMA	0	HLT_0284	0	HLGT_0192	0	SKIN AND SUBCUTANEOUS TISSUE DISORDERS	0	SKIN AND SUBCUTANEOUS TISSUE DISORDERS	0	MODERATE	N		PROBABLE	NOT RECOVERED/NOT RESOLVED	N	N	N	N	N	N	N	TREATMENT	8/27/2012	8/7/2012		23	3	0
CDISCPILOT01	AE	01-701-1023	4	E08	ERYTHEMA	ERYTHEMA	0	ERYTHEMA	0	HLT_0284	0	HLGT_0192	0	SKIN AND SUBCUTANEOUS TISSUE DISORDERS	0	SKIN AND SUBCUTANEOUS TISSUE DISORDERS	0	MILD	N		POSSIBLE	RECOVERED/RESOLVED	N	N	N	N	N	N	N	TREATMENT	9/2/2012	8/7/2012	8/30/2012	29	3	26
CDISCPILOT01	AE	01-701-1028	1	E04	APPLICATION SITE ERYTHEMA	APPLICATION SITE ERYTHEMA	0	APPLICATION SITE ERYTHEMA	0	HLT_0617	0	HLGT_0152	0	GENERAL DISORDERS AND ADMINISTRATION SITE CONDITIONS	0	GENERAL DISORDERS AND ADMINISTRATION SITE CONDITIONS	0	MILD	N		POSSIBLE	NOT RECOVERED/NOT RESOLVED	N	N	N	N	N	N	N	TREATMENT	8/1/2013	7/21/2013		14	3	0
CDISCPILOT01	AE	01-701-1028	2	E05	APPLICATION SITE PRURITUS	APPLICATION SITE ITCHING	0	APPLICATION SITE PRURITUS	0	HLT_0317	0	HLGT_0338	0	GENERAL DISORDERS AND ADMINISTRATION SITE CONDITIONS	0	GENERAL DISORDERS AND ADMINISTRATION SITE CONDITIONS	0	MILD	N		PROBABLE	NOT RECOVERED/NOT RESOLVED	N	N	N	N	N	N	N	TREATMENT	8/14/2013	8/8/2013		27	21	0
CDISCPILOT01	AE	01-701-1034	1	E08	APPLICATION SITE PRURITUS	APPLICATION SITE ITCHING	0	APPLICATION SITE PRURITUS	0	HLT_0317	0	HLGT_0338	0	GENERAL DISORDERS AND ADMINISTRATION SITE CONDITIONS	0	GENERAL DISORDERS AND ADMINISTRATION SITE CONDITIONS	0	MILD	N		PROBABLE	NOT RECOVERED/NOT RESOLVED	N	N	N	N	N	N	N	TREATMENT	9/25/2014	8/27/2014		87	58	0
CDISCPILOT01	AE	01-701-1034	2	E07	FATIGUE	FATIGUE	0	FATIGUE	0	HLT_0043	0	HLGT_0181	0	GENERAL DISORDERS AND ADMINISTRATION SITE CONDITIONS	0	GENERAL DISORDERS AND ADMINISTRATION SITE CONDITIONS	0	MILD	N		POSSIBLE	NOT RECOVERED/NOT RESOLVED	N	N	N	N	N	N	N	TREATMENT	11/18/2014	11/2/2014		141	125	0
CDISCPILOT01	AE	01-701-1047	4	E09	BUNDLE BRANCH BLOCK LEFT	LEFT BUNDLE BRANCH BLOCK	0	BUNDLE BRANCH BLOCK LEFT	0	HLT_0281	0	HLGT_0721	0	CARDIAC DISORDERS	0	CARDIAC DISORDERS	0	MILD	N		NONE	NOT RECOVERED/NOT RESOLVED	N	N	N	N	N	N	N	TREATMENT	3/10/2013	3/10/2013		27	27	0
CDISCPILOT01	AE	01-701-1047	2	E06	HIATUS HERNIA	HERNIA HIATAL	0	HIATUS HERNIA	0	HLT_0159	0	HLGT_0109	0	GASTROINTESTINAL DISORDERS	0	GASTROINTESTINAL DISORDERS	0	MODERATE	N		NONE	RECOVERED/RESOLVED	N	N	N	N	N	N	N	TREATMENT	2/25/2013	2/12/2013	2/12/2013	14	1	1
CDISCPILOT01	AE	01-701-1047	3	E08	UPPER RESPIRATORY TRACT INFECTION	UPPER RESPIRATORY INFECTION	0	UPPER RESPIRATORY TRACT INFECTION	0	HLT_0520	0	HLGT_0489	0	INFECTIONS AND INFESTATIONS	0	INFECTIONS AND INFESTATIONS	0	MILD	N		NONE	NOT RECOVERED/NOT RESOLVED	N	N	N	N	N	N	N	TREATMENT	3/10/2013	3/6/2013		27	23	0
CDISCPILOT01	AE	01-701-1097	4	E06	APPLICATION SITE PRURITUS	APPLICATION SITE ITCHING	0	APPLICATION SITE PRURITUS	0	HLT_0317	0	HLGT_0338	0	GENERAL DISORDERS AND ADMINISTRATION SITE CONDITIONS	0	GENERAL DISORDERS AND ADMINISTRATION SITE CONDITIONS	0	MILD	N		POSSIBLE	NOT RECOVERED/NOT RESOLVED	N	N	N	N	N	N	N	TREATMENT	2/26/2014	2/21/2014		57	52	0
CDISCPILOT01	AE	01-701-1097	10	E06	APPLICATION SITE PRURITUS	APPLICATION SITE ITCHING	0	APPLICATION SITE PRURITUS	0	HLT_0317	0	HLGT_0338	0	GENERAL DISORDERS AND ADMINISTRATION SITE CONDITIONS	0	GENERAL DISORDERS AND ADMINISTRATION SITE CONDITIONS	0	MODERATE	N		POSSIBLE	NOT RECOVERED/NOT RESOLVED	N	N	N	N	N	N	N	TREATMENT	5/21/2014	2/21/2014		141	52	0
CDISCPILOT01	AE	01-701-1097	3	E07	APPLICATION SITE VESICLES	APPLICATION SITE BLISTER	0	APPLICATION SITE VESICLES	0	HLT_0180	0	HLGT_0576	0	GENERAL DISORDERS AND ADMINISTRATION SITE CONDITIONS	0	GENERAL DISORDERS AND ADMINISTRATION SITE CONDITIONS	0	MILD	N		PROBABLE	RECOVERED/RESOLVED	N	N	N	N	N	N	N	TREATMENT	2/26/2014	2/20/2014	2/22/2014	57	51	53
CDISCPILOT01	AE	01-701-1097	1	E04	ERYTHEMA	ERYTHEMA	0	ERYTHEMA	0	HLT_0284	0	HLGT_0192	0	SKIN AND SUBCUTANEOUS TISSUE DISORDERS	0	SKIN AND SUBCUTANEOUS TISSUE DISORDERS	0	MILD	N		POSSIBLE	NOT RECOVERED/NOT RESOLVED	N	N	N	N	N	N	N	TREATMENT	1/15/2014	1/3/2014		15	3	0
CDISCPILOT01	AE	01-701-1097	9	E11	NASAL CONGESTION	NASAL CONGESTION	0	NASAL CONGESTION	0	HLT_0118	0	HLGT_0549	0	"RESPIRATORY, THORACIC AND MEDIASTINAL DISORDERS"	0	"RESPIRATORY, THORACIC AND MEDIASTINAL DISORDERS"	0	MILD	N		NONE	RECOVERED/RESOLVED	N	N	N	N	N	N	N	TREATMENT	4/23/2014	4/19/2014	4/22/2014	113	109	112
CDISCPILOT01	AE	01-701-1097	8	E10	PHARYNGOLARYNGEAL PAIN	SORE THROAT	0	PHARYNGOLARYNGEAL PAIN	0	HLT_0130	0	HLGT_0402	0	"RESPIRATORY, THORACIC AND MEDIASTINAL DISORDERS"	0	"RESPIRATORY, THORACIC AND MEDIASTINAL DISORDERS"	0	MILD	N		NONE	RECOVERED/RESOLVED	N	N	N	N	N	N	N	TREATMENT	4/23/2014	4/19/2014	4/22/2014	113	109	112
CDISCPILOT01	AE	01-701-1097	2	E05	PRURITUS GENERALISED	GENERALIZED PRURITUS	0	PRURITUS GENERALISED	0	HLT_0123	0	HLGT_0689	0	SKIN AND SUBCUTANEOUS TISSUE DISORDERS	0	SKIN AND SUBCUTANEOUS TISSUE DISORDERS	0	MODERATE	N		POSSIBLE	RECOVERED/RESOLVED	N	N	N	N	N	N	N	TREATMENT	2/26/2014	2/20/2014	2/20/2014	57	51	51
CDISCPILOT01	AE	01-701-1097	5	E08	PRURITUS GENERALISED	GENERALIZED PRURITUS	0	PRURITUS GENERALISED	0	HLT_0123	0	HLGT_0689	0	SKIN AND SUBCUTANEOUS TISSUE DISORDERS	0	SKIN AND SUBCUTANEOUS TISSUE DISORDERS	0	MODERATE	N		POSSIBLE	RECOVERED/RESOLVED	N	N	N	N	N	N	N	TREATMENT	3/26/2014	3/21/2014	3/21/2014	85	80	80
CDISCPILOT01	AE	01-701-1097	6	E12	PRURITUS GENERALISED	GENERALIZED PRURITUS	0	PRURITUS GENERALISED	0	HLT_0123	0	HLGT_0689	0	SKIN AND SUBCUTANEOUS TISSUE DISORDERS	0	SKIN AND SUBCUTANEOUS TISSUE DISORDERS	0	MODERATE	N		POSSIBLE	RECOVERED/RESOLVED	N	N	N	N	N	N	N	TREATMENT	4/23/2014	3/31/2014	3/31/2014	113	90	90
CDISCPILOT01	AE	01-701-1097	7	E09	PRURITUS GENERALISED	GENERALIZED PRURITUS	0	PRURITUS GENERALISED	0	HLT_0123	0	HLGT_0689	0	SKIN AND SUBCUTANEOUS TISSUE DISORDERS	0	SKIN AND SUBCUTANEOUS TISSUE DISORDERS	0	MODERATE	N		POSSIBLE	RECOVERED/RESOLVED	N	N	N	N	N	N	N	TREATMENT	4/23/2014	4/19/2014	4/20/2014	113	109	110
CDISCPILOT01	AE	01-701-1111	7	E16	ARTHRALGIA	GENERALIZED JOINT PAIN	0	ARTHRALGIA	0	HLT_0375	0	HLGT_0610	0	MUSCULOSKELETAL AND CONNECTIVE TISSUE DISORDERS	0	MUSCULOSKELETAL AND CONNECTIVE TISSUE DISORDERS	0	MODERATE	N		NONE	NOT RECOVERED/NOT RESOLVED	N	N	N	N	N	N	N	TREATMENT	9/17/2012	9/13/2012		11	7	0
CDISCPILOT01	AE	01-701-1111	8	E17	CELLULITIS	CELLULITIS OF LEG	0	CELLULITIS	0	HLT_0613	0	HLGT_0066	0	INFECTIONS AND INFESTATIONS	0	INFECTIONS AND INFESTATIONS	0	MODERATE	N		NONE	NOT RECOVERED/NOT RESOLVED	N	N	N	N	N	N	N	TREATMENT	9/17/2012	9/13/2012		11	7	0
CDISCPILOT01	AE	01-701-1111	4	E14	ERYTHEMA	ERYTHEMA	0	ERYTHEMA	0	HLT_0284	0	HLGT_0192	0	SKIN AND SUBCUTANEOUS TISSUE DISORDERS	0	SKIN AND SUBCUTANEOUS TISSUE DISORDERS	0	MILD	N		NONE	RECOVERED/RESOLVED	N	N	N	N	N	N	N	SCREENING	9/17/2012	9/2/2012	9/7/2012	11	-5	1
CDISCPILOT01	AE	01-701-1111	3	E06	LOCALISED INFECTION	LOCALIZED INFECTION	0	LOCALISED INFECTION	0	HLT_0435	0	HLGT_0557	0	INFECTIONS AND INFESTATIONS	0	INFECTIONS AND INFESTATIONS	0	MODERATE	N		NONE	NOT RECOVERED/NOT RESOLVED	N	N	N	N	N	N	N	SCREENING	9/17/2012	7/8/2012		11	-61	0
CDISCPILOT01	AE	01-701-1111	6	E18	MICTURITION URGENCY	URINARY URGENCY	0	MICTURITION URGENCY	0	HLT_0294	0	HLGT_0483	0	RENAL AND URINARY DISORDERS	0	RENAL AND URINARY DISORDERS	0	MILD	N		NONE	NOT RECOVERED/NOT RESOLVED	N	N	N	N	N	N	N	TREATMENT	9/17/2012	9/7/2012		11	1	0
CDISCPILOT01	AE	01-701-1111	5	E15	PRURITUS	ITCHING	0	PRURITUS	0	HLT_0778	0	HLGT_0695	0	SKIN AND SUBCUTANEOUS TISSUE DISORDERS	0	SKIN AND SUBCUTANEOUS TISSUE DISORDERS	0	MILD	N		NONE	RECOVERED/RESOLVED	N	N	N	N	N	N	N	SCREENING	9/17/2012	9/2/2012	9/7/2012	11	-5	1
CDISCPILOT01	AE	01-701-1115	9	E14	APPLICATION SITE DERMATITIS	APPLICATION SITE RASH	0	APPLICATION SITE DERMATITIS	0	HLT_0343	0	HLGT_0241	0	GENERAL DISORDERS AND ADMINISTRATION SITE CONDITIONS	0	GENERAL DISORDERS AND ADMINISTRATION SITE CONDITIONS	0	MODERATE	N		PROBABLE	NOT RECOVERED/NOT RESOLVED	N	N	N	N	N	N	N	TREATMENT	1/23/2013	1/19/2013		55	51	0
CDISCPILOT01	AE	01-701-1115	1	E09	APPLICATION SITE ERYTHEMA	APPLICATION SITE REDNESS	0	APPLICATION SITE ERYTHEMA	0	HLT_0617	0	HLGT_0152	0	GENERAL DISORDERS AND ADMINISTRATION SITE CONDITIONS	0	GENERAL DISORDERS AND ADMINISTRATION SITE CONDITIONS	0	MILD	N		PROBABLE	NOT RECOVERED/NOT RESOLVED	N	N	N	N	N	N	N	TREATMENT	12/13/2012	12/2/2012		14	3	0
CDISCPILOT01	AE	01-701-1115	5	E09	APPLICATION SITE ERYTHEMA	APPLICATION SITE REDNESS	0	APPLICATION SITE ERYTHEMA	0	HLT_0617	0	HLGT_0152	0	GENERAL DISORDERS AND ADMINISTRATION SITE CONDITIONS	0	GENERAL DISORDERS AND ADMINISTRATION SITE CONDITIONS	0	MODERATE	N		PROBABLE	NOT RECOVERED/NOT RESOLVED	N	N	N	N	N	N	N	TREATMENT	1/23/2013	12/2/2012		55	3	0
CDISCPILOT01	AE	01-701-1115	4	E10	APPLICATION SITE IRRITATION	APPLICATION SITE BURNING	0	APPLICATION SITE IRRITATION	0	HLT_0061	0	HLGT_0346	0	GENERAL DISORDERS AND ADMINISTRATION SITE CONDITIONS	0	GENERAL DISORDERS AND ADMINISTRATION SITE CONDITIONS	0	MILD	N		POSSIBLE	RECOVERED/RESOLVED	N	N	N	N	N	N	N	TREATMENT	12/28/2012	12/26/2012	12/26/2012	29	27	27
CDISCPILOT01	AE	01-701-1115	8	E12	APPLICATION SITE IRRITATION	APPLICATION SITE BURNING	0	APPLICATION SITE IRRITATION	0	HLT_0061	0	HLGT_0346	0	GENERAL DISORDERS AND ADMINISTRATION SITE CONDITIONS	0	GENERAL DISORDERS AND ADMINISTRATION SITE CONDITIONS	0	MODERATE	N		PROBABLE	NOT RECOVERED/NOT RESOLVED	N	N	N	N	N	N	N	TREATMENT	1/23/2013	1/19/2013		55	51	0
CDISCPILOT01	AE	01-701-1115	2	E11	APPLICATION SITE PRURITUS	APPLICATION SITE ITCHING	0	APPLICATION SITE PRURITUS	0	HLT_0317	0	HLGT_0338	0	GENERAL DISORDERS AND ADMINISTRATION SITE CONDITIONS	0	GENERAL DISORDERS AND ADMINISTRATION SITE CONDITIONS	0	MILD	N		PROBABLE	NOT RECOVERED/NOT RESOLVED	N	N	N	N	N	N	N	TREATMENT	12/13/2012	12/2/2012		14	3	0
CDISCPILOT01	AE	01-701-1115	6	E11	APPLICATION SITE PRURITUS	APPLICATION SITE ITCHING	0	APPLICATION SITE PRURITUS	0	HLT_0317	0	HLGT_0338	0	GENERAL DISORDERS AND ADMINISTRATION SITE CONDITIONS	0	GENERAL DISORDERS AND ADMINISTRATION SITE CONDITIONS	0	MODERATE	N		PROBABLE	NOT RECOVERED/NOT RESOLVED	N	N	N	N	N	N	N	TREATMENT	1/23/2013	12/2/2012		55	3	0
CDISCPILOT01	AE	01-701-1115	7	E13	FATIGUE	FATIGUE	0	FATIGUE	0	HLT_0043	0	HLGT_0181	0	GENERAL DISORDERS AND ADMINISTRATION SITE CONDITIONS	0	GENERAL DISORDERS AND ADMINISTRATION SITE CONDITIONS	0	MODERATE	N		REMOTE	NOT RECOVERED/NOT RESOLVED	N	N	N	N	N	N	N	TREATMENT	1/23/2013	1/14/2013		55	46	0
CDISCPILOT01	AE	01-701-1118	1	E06	COUGH	COUGH	0	COUGH	0	HLT_0701	0	HLGT_0280	0	"RESPIRATORY, THORACIC AND MEDIASTINAL DISORDERS"	0	"RESPIRATORY, THORACIC AND MEDIASTINAL DISORDERS"	0	MILD	N		NONE	NOT RECOVERED/NOT RESOLVED	N	N	N	N	N	N	N	SCREENING	3/10/2014	2003		-2	0	0
CDISCPILOT01	AE	01-701-1130	5	E09	EYE ALLERGY	EYE ALLERGY	0	EYE ALLERGY	0	HLT_0256	0	HLGT_0071	0	EYE DISORDERS	0	EYE DISORDERS	0	MILD	N		NONE	RECOVERED/RESOLVED	N	N	N	N	N	N	N	TREATMENT	5/16/2014	5/9/2014	5/9/2014	91	84	84
CDISCPILOT01	AE	01-701-1130	6	E10	EYE PRURITUS	EYE ITCHING	0	EYE PRURITUS	0	HLT_0523	0	HLGT_0240	0	EYE DISORDERS	0	EYE DISORDERS	0	MILD	N		REMOTE	NOT RECOVERED/NOT RESOLVED	N	N	N	N	N	N	N	TREATMENT	6/7/2014	5/22/2014		113	97	0
CDISCPILOT01	AE	01-701-1130	4	E08	EYE SWELLING	EYES SWOLLEN	0	EYE SWELLING	0	HLT_0008	0	HLGT_0466	0	EYE DISORDERS	0	EYE DISORDERS	0	MILD	N		NONE	RECOVERED/RESOLVED	N	N	N	N	N	N	N	TREATMENT	5/16/2014	5/9/2014	5/9/2014	91	84	84
CDISCPILOT01	AE	01-701-1130	8	E12	NASAL CONGESTION	NASAL CONGESTION	0	NASAL CONGESTION	0	HLT_0118	0	HLGT_0549	0	"RESPIRATORY, THORACIC AND MEDIASTINAL DISORDERS"	0	"RESPIRATORY, THORACIC AND MEDIASTINAL DISORDERS"	0	MILD	N		REMOTE	NOT RECOVERED/NOT RESOLVED	N	N	N	N	N	N	N	TREATMENT	6/7/2014	5/22/2014		113	97	0
CDISCPILOT01	AE	01-701-1130	7	E11	PRURITUS	ITCHING BOTH HANDS	0	PRURITUS	0	HLT_0778	0	HLGT_0695	0	SKIN AND SUBCUTANEOUS TISSUE DISORDERS	0	SKIN AND SUBCUTANEOUS TISSUE DISORDERS	0	MILD	N		REMOTE	NOT RECOVERED/NOT RESOLVED	N	N	N	N	N	N	N	TREATMENT	6/7/2014	5/22/2014		113	97	0
CDISCPILOT01	AE	01-701-1130	2	E07	PYREXIA	FEVER	0	PYREXIA	0	HLT_0310	0	HLGT_0652	0	GENERAL DISORDERS AND ADMINISTRATION SITE CONDITIONS	0	GENERAL DISORDERS AND ADMINISTRATION SITE CONDITIONS	0	MILD	N		NONE	RECOVERED/RESOLVED	N	N	N	N	N	N	N	TREATMENT	3/15/2014	3/9/2014	3/9/2014	29	23	23
CDISCPILOT01	AE	01-701-1130	3	E06	URINARY TRACT INFECTION	URINARY TRACT INFECTION	0	URINARY TRACT INFECTION	0	HLT_0161	0	HLGT_0093	0	INFECTIONS AND INFESTATIONS	0	INFECTIONS AND INFESTATIONS	0	MILD	N		NONE	RECOVERED/RESOLVED	N	N	N	N	N	N	N	TREATMENT	3/17/2014	3/9/2014	3/16/2014	31	23	30
CDISCPILOT01	AE	01-701-1133	1	E04	APPLICATION SITE ERYTHEMA	APPLICATION SITE REDNESS	0	APPLICATION SITE ERYTHEMA	0	HLT_0617	0	HLGT_0152	0	GENERAL DISORDERS AND ADMINISTRATION SITE CONDITIONS	0	GENERAL DISORDERS AND ADMINISTRATION SITE CONDITIONS	0	MILD	N		PROBABLE	NOT RECOVERED/NOT RESOLVED	N	N	N	N	N	N	N	TREATMENT	1/22/2013	12/27/2012		87	61	0
CDISCPILOT01	AE	01-701-1133	3	E04	APPLICATION SITE ERYTHEMA	APPLICATION SITE REDNESS	0	APPLICATION SITE ERYTHEMA	0	HLT_0617	0	HLGT_0152	0	GENERAL DISORDERS AND ADMINISTRATION SITE CONDITIONS	0	GENERAL DISORDERS AND ADMINISTRATION SITE CONDITIONS	0	MODERATE	N		PROBABLE	NOT RECOVERED/NOT RESOLVED	N	N	N	N	N	N	N	TREATMENT	2/18/2013	12/27/2012		114	61	0
CDISCPILOT01	AE	01-701-1133	2	E05	APPLICATION SITE PRURITUS	APPLICATION SITE ITCHING	0	APPLICATION SITE PRURITUS	0	HLT_0317	0	HLGT_0338	0	GENERAL DISORDERS AND ADMINISTRATION SITE CONDITIONS	0	GENERAL DISORDERS AND ADMINISTRATION SITE CONDITIONS	0	MILD	N		PROBABLE	NOT RECOVERED/NOT RESOLVED	N	N	N	N	N	N	N	TREATMENT	1/22/2013	12/27/2012		87	61	0
CDISCPILOT01	AE	01-701-1133	4	E05	APPLICATION SITE PRURITUS	APPLICATION SITE ITCHING	0	APPLICATION SITE PRURITUS	0	HLT_0317	0	HLGT_0338	0	GENERAL DISORDERS AND ADMINISTRATION SITE CONDITIONS	0	GENERAL DISORDERS AND ADMINISTRATION SITE CONDITIONS	0	MODERATE	N		PROBABLE	NOT RECOVERED/NOT RESOLVED	N	N	N	N	N	N	N	TREATMENT	2/18/2013	12/27/2012		114	61	0
CDISCPILOT01	AE	01-701-1146	5	E12	APPLICATION SITE ERYTHEMA	APPLICATION SITE ERYTHEMA	0	APPLICATION SITE ERYTHEMA	0	HLT_0617	0	HLGT_0152	0	GENERAL DISORDERS AND ADMINISTRATION SITE CONDITIONS	0	GENERAL DISORDERS AND ADMINISTRATION SITE CONDITIONS	0	MILD	N		PROBABLE	NOT RECOVERED/NOT RESOLVED	N	N	N	N	N	N	N	TREATMENT	6/16/2013	6/10/2013		28	22	0
CDISCPILOT01	AE	01-701-1146	7	E12	APPLICATION SITE ERYTHEMA	APPLICATION SITE ERYTHEMA	0	APPLICATION SITE ERYTHEMA	0	HLT_0617	0	HLGT_0152	0	GENERAL DISORDERS AND ADMINISTRATION SITE CONDITIONS	0	GENERAL DISORDERS AND ADMINISTRATION SITE CONDITIONS	0	MODERATE	N		PROBABLE	NOT RECOVERED/NOT RESOLVED	N	N	N	N	N	N	N	TREATMENT	6/30/2013	6/10/2013		42	22	0
CDISCPILOT01	AE	01-701-1146	3	E10	APPLICATION SITE IRRITATION	APPLICATION SITE IRRITATION	0	APPLICATION SITE IRRITATION	0	HLT_0061	0	HLGT_0346	0	GENERAL DISORDERS AND ADMINISTRATION SITE CONDITIONS	0	GENERAL DISORDERS AND ADMINISTRATION SITE CONDITIONS	0	MILD	N		PROBABLE	RECOVERED/RESOLVED	N	N	N	N	N	N	N	TREATMENT	6/3/2013	6/1/2013	6/2/2013	15	13	14
CDISCPILOT01	AE	01-701-1146	11	E16	APPLICATION SITE IRRITATION	APPLICATION SITE BURNING	0	APPLICATION SITE IRRITATION	0	HLT_0061	0	HLGT_0346	0	GENERAL DISORDERS AND ADMINISTRATION SITE CONDITIONS	0	GENERAL DISORDERS AND ADMINISTRATION SITE CONDITIONS	0	MODERATE	N		PROBABLE	NOT RECOVERED/NOT RESOLVED	N	N	N	N	N	N	N	TREATMENT	6/30/2013	6/26/2013		42	38	0
CDISCPILOT01	AE	01-701-1146	9	E14	APPLICATION SITE PAIN	APPLICATION SITE PAIN	0	APPLICATION SITE PAIN	0	HLT_0342	0	HLGT_0085	0	GENERAL DISORDERS AND ADMINISTRATION SITE CONDITIONS	0	GENERAL DISORDERS AND ADMINISTRATION SITE CONDITIONS	0	MODERATE	N		PROBABLE	NOT RECOVERED/NOT RESOLVED	N	N	N	N	N	N	N	TREATMENT	6/30/2013	6/22/2013		42	34	0
CDISCPILOT01	AE	01-701-1146	6	E13	APPLICATION SITE PRURITUS	APPLICATION SITE ITCHING	0	APPLICATION SITE PRURITUS	0	HLT_0317	0	HLGT_0338	0	GENERAL DISORDERS AND ADMINISTRATION SITE CONDITIONS	0	GENERAL DISORDERS AND ADMINISTRATION SITE CONDITIONS	0	MILD	N		PROBABLE	NOT RECOVERED/NOT RESOLVED	N	N	N	N	N	N	N	TREATMENT	6/16/2013	6/10/2013		28	22	0
CDISCPILOT01	AE	01-701-1146	8	E13	APPLICATION SITE PRURITUS	APPLICATION SITE ITCHING	0	APPLICATION SITE PRURITUS	0	HLT_0317	0	HLGT_0338	0	GENERAL DISORDERS AND ADMINISTRATION SITE CONDITIONS	0	GENERAL DISORDERS AND ADMINISTRATION SITE CONDITIONS	0	MODERATE	N		PROBABLE	NOT RECOVERED/NOT RESOLVED	N	N	N	N	N	N	N	TREATMENT	6/30/2013	6/10/2013		42	22	0
CDISCPILOT01	AE	01-701-1146	10	E15	APPLICATION SITE VESICLES	APPLICATION SITE VESICLES	0	APPLICATION SITE VESICLES	0	HLT_0180	0	HLGT_0576	0	GENERAL DISORDERS AND ADMINISTRATION SITE CONDITIONS	0	GENERAL DISORDERS AND ADMINISTRATION SITE CONDITIONS	0	MODERATE	N		PROBABLE	NOT RECOVERED/NOT RESOLVED	N	N	N	N	N	N	N	TREATMENT	6/30/2013	6/26/2013		42	38	0
CDISCPILOT01	AE	01-701-1146	4	E11	FATIGUE	FATIGUE	0	FATIGUE	0	HLT_0043	0	HLGT_0181	0	GENERAL DISORDERS AND ADMINISTRATION SITE CONDITIONS	0	GENERAL DISORDERS AND ADMINISTRATION SITE CONDITIONS	0	MILD	N		POSSIBLE	NOT RECOVERED/NOT RESOLVED	N	N	N	N	N	N	N	TREATMENT	6/3/2013	6/3/2013		15	15	0
CDISCPILOT01	AE	01-701-1146	2	E09	RASH	RASH	0	RASH	0	HLT_0762	0	HLGT_0198	0	SKIN AND SUBCUTANEOUS TISSUE DISORDERS	0	SKIN AND SUBCUTANEOUS TISSUE DISORDERS	0	MILD	N		NONE	RECOVERED/RESOLVED	N	N	N	N	N	N	N	SCREENING	6/3/2013	5/16/2013	6/2/2013	15	-4	14
CDISCPILOT01	AE	01-701-1148	10	E27	ACTINIC KERATOSIS	ACTINIC KERATOSIS	0	ACTINIC KERATOSIS	0	HLT_0609	0	HLGT_0490	0	SKIN AND SUBCUTANEOUS TISSUE DISORDERS	0	SKIN AND SUBCUTANEOUS TISSUE DISORDERS	0	MILD	N		NONE	NOT RECOVERED/NOT RESOLVED	N	N	N	N	N	N	N	TREATMENT	2/20/2014	2/12/2014		182	174	0
CDISCPILOT01	AE	01-701-1148	1	E20	APPLICATION SITE ERYTHEMA	APPLICATION SITE REDNESS	0	APPLICATION SITE ERYTHEMA	0	HLT_0617	0	HLGT_0152	0	GENERAL DISORDERS AND ADMINISTRATION SITE CONDITIONS	0	GENERAL DISORDERS AND ADMINISTRATION SITE CONDITIONS	0	MILD	N		PROBABLE	NOT RECOVERED/NOT RESOLVED	N	N	N	N	N	N	N	TREATMENT	9/5/2013	8/25/2013		14	3	0
CDISCPILOT01	AE	01-701-1148	2	E21	APPLICATION SITE PRURITUS	APPLICATION SITE ITCHING	0	APPLICATION SITE PRURITUS	0	HLT_0317	0	HLGT_0338	0	GENERAL DISORDERS AND ADMINISTRATION SITE CONDITIONS	0	GENERAL DISORDERS AND ADMINISTRATION SITE CONDITIONS	0	MILD	N		PROBABLE	NOT RECOVERED/NOT RESOLVED	N	N	N	N	N	N	N	TREATMENT	9/5/2013	8/25/2013		14	3	0
CDISCPILOT01	AE	01-701-1148	6	E25	CALCULUS URETHRAL	URETHRAL CALCULUS	0	CALCULUS URETHRAL	0	HLT_0550	0	HLGT_0414	0	RENAL AND URINARY DISORDERS	0	RENAL AND URINARY DISORDERS	0	MODERATE	N		NONE	RECOVERED/RESOLVED	N	N	N	N	N	N	N	TREATMENT	1/10/2014	12/17/2013	12/17/2013	141	117	117
CDISCPILOT01	AE	01-701-1148	9	E26	DEPRESSED MOOD	DEPRESSED MOOD	0	DEPRESSED MOOD	0	HLT_0784	0	HLGT_0122	0	PSYCHIATRIC DISORDERS	0	PSYCHIATRIC DISORDERS	0	MODERATE	N		NONE	NOT RECOVERED/NOT RESOLVED	N	N	N	N	N	N	N	SCREENING	2/8/2014	7/29/2013		170	-25	0
CDISCPILOT01	AE	01-701-1148	8	E03	DYSPEPSIA	INDIGESTION	0	DYSPEPSIA	0	HLT_0244	0	HLGT_0716	0	GASTROINTESTINAL DISORDERS	0	GASTROINTESTINAL DISORDERS	0	MODERATE	N		NONE	NOT RECOVERED/NOT RESOLVED	N	N	N	N	N	N	N	SCREENING	2/8/2014	2012-02		170	0	0
CDISCPILOT01	AE	01-701-1148	7	E28	EPISTAXIS	NOSE BLEED	0	EPISTAXIS	0	HLT_0386	0	HLGT_0577	0	"RESPIRATORY, THORACIC AND MEDIASTINAL DISORDERS"	0	"RESPIRATORY, THORACIC AND MEDIASTINAL DISORDERS"	0	MILD	N		NONE	RECOVERED/RESOLVED	N	N	N	N	N	N	N	TREATMENT	1/10/2014	1/3/2014	1/3/2014	141	134	134
CDISCPILOT01	AE	01-701-1148	5	E24	FLANK PAIN	FLANK PAIN	0	FLANK PAIN	0	HLT_0484	0	HLGT_0543	0	MUSCULOSKELETAL AND CONNECTIVE TISSUE DISORDERS	0	MUSCULOSKELETAL AND CONNECTIVE TISSUE DISORDERS	0	MODERATE	N		NONE	RECOVERED/RESOLVED	N	N	N	N	N	N	N	TREATMENT	1/10/2014	12/15/2013	12/17/2013	141	115	117
CDISCPILOT01	AE	01-701-1148	4	E23	LOWER RESPIRATORY TRACT INFECTION	CHEST COLD	0	LOWER RESPIRATORY TRACT INFECTION	0	HLT_0052	0	HLGT_0217	0	INFECTIONS AND INFESTATIONS	0	INFECTIONS AND INFESTATIONS	0	MODERATE	N		NONE	RECOVERED/RESOLVED	N	N	N	N	N	N	N	TREATMENT	11/17/2013	10/12/2013	11/10/2013	87	51	80
CDISCPILOT01	AE	01-701-1153	2	E06	INCREASED APPETITE	INCREASED APPETITE	0	INCREASED APPETITE	0	HLT_0566	0	HLGT_0769	0	METABOLISM AND NUTRITION DISORDERS	0	METABOLISM AND NUTRITION DISORDERS	0	MILD	N		POSSIBLE	RECOVERED/RESOLVED	N	N	N	N	N	N	N	TREATMENT	11/18/2013	10/13/2013	11/6/2013	57	21	45
CDISCPILOT01	AE	01-701-1180	9	E07	APPLICATION SITE ERYTHEMA	APPLICATION SITE ERYTHEMA	0	APPLICATION SITE ERYTHEMA	0	HLT_0617	0	HLGT_0152	0	GENERAL DISORDERS AND ADMINISTRATION SITE CONDITIONS	0	GENERAL DISORDERS AND ADMINISTRATION SITE CONDITIONS	0	MODERATE	N		POSSIBLE	NOT RECOVERED/NOT RESOLVED	N	N	N	N	N	N	N	TREATMENT	3/23/2013	3/19/2013		40	36	0
CDISCPILOT01	AE	01-701-1180	8	E06	APPLICATION SITE PRURITUS	APPLICATION SITE ITCHING	0	APPLICATION SITE PRURITUS	0	HLT_0317	0	HLGT_0338	0	GENERAL DISORDERS AND ADMINISTRATION SITE CONDITIONS	0	GENERAL DISORDERS AND ADMINISTRATION SITE CONDITIONS	0	MODERATE	N		POSSIBLE	NOT RECOVERED/NOT RESOLVED	N	N	N	N	N	N	N	TREATMENT	3/23/2013	3/19/2013		40	36	0
CDISCPILOT01	AE	01-701-1180	7	E05	APPLICATION SITE VESICLES	APPLICATION SITE BLISTER	0	APPLICATION SITE VESICLES	0	HLT_0180	0	HLGT_0576	0	GENERAL DISORDERS AND ADMINISTRATION SITE CONDITIONS	0	GENERAL DISORDERS AND ADMINISTRATION SITE CONDITIONS	0	MODERATE	N		POSSIBLE	NOT RECOVERED/NOT RESOLVED	N	N	N	N	N	N	N	TREATMENT	3/23/2013	3/19/2013		40	36	0
CDISCPILOT01	AE	01-701-1180	4	E04	HEADACHE	HEADACHE	0	HEADACHE	0	HLT_0064	0	HLGT_0344	0	NERVOUS SYSTEM DISORDERS	0	NERVOUS SYSTEM DISORDERS	0	MODERATE	N		NONE	NOT RECOVERED/NOT RESOLVED	N	N	N	N	N	N	N	SCREENING	3/11/2013	2002		28	0	0
CDISCPILOT01	AE	01-701-1180	6	E02	MICTURITION URGENCY	URINARY URGENCY	0	MICTURITION URGENCY	0	HLT_0294	0	HLGT_0483	0	RENAL AND URINARY DISORDERS	0	RENAL AND URINARY DISORDERS	0	MILD	N		POSSIBLE	RECOVERED/RESOLVED	N	N	N	N	N	N	N	TREATMENT	3/23/2013	2/15/2013	3/19/2013	40	4	36
CDISCPILOT01	AE	01-701-1180	5	E03	NASOPHARYNGITIS	COLD	0	NASOPHARYNGITIS	0	HLT_0036	0	HLGT_0709	0	INFECTIONS AND INFESTATIONS	0	INFECTIONS AND INFESTATIONS	0	MILD	N		NONE	RECOVERED/RESOLVED	N	N	N	N	N	N	N	TREATMENT	3/11/2013	3/6/2013	3/7/2013	28	23	24
CDISCPILOT01	AE	01-701-1180	2	E01	VOMITING	VOMITING	0	VOMITING	0	HLT_0016	0	HLGT_0350	0	GASTROINTESTINAL DISORDERS	0	GASTROINTESTINAL DISORDERS	0	MILD	N		NONE	RECOVERED/RESOLVED	N	N	N	N	N	N	N	TREATMENT	2/25/2013	2/12/2013	2/12/2013	14	1	1
CDISCPILOT01	AE	01-701-1181	1	E16	AGITATION	AGITATION	0	AGITATION	0	HLT_0140	0	HLGT_0170	0	PSYCHIATRIC DISORDERS	0	PSYCHIATRIC DISORDERS	0	MODERATE	N		NONE	RECOVERED/RESOLVED	N	N	N	N	N	N	N	TREATMENT	12/12/2013	12/9/2013	12/9/2013	8	5	5
CDISCPILOT01	AE	01-701-1188	7	E09	APPLICATION SITE URTICARIA	APPLICATION SITE URTICARIA	0	APPLICATION SITE URTICARIA	0	HLT_0196	0	HLGT_0233	0	GENERAL DISORDERS AND ADMINISTRATION SITE CONDITIONS	0	GENERAL DISORDERS AND ADMINISTRATION SITE CONDITIONS	0	MILD	N		PROBABLE	NOT RECOVERED/NOT RESOLVED	N	N	N	N	N	N	N	TREATMENT	3/25/2013	3/21/2013		39	35	0
CDISCPILOT01	AE	01-701-1188	1	E04	ERYTHEMA	ERYTHEMA	0	ERYTHEMA	0	HLT_0284	0	HLGT_0192	0	SKIN AND SUBCUTANEOUS TISSUE DISORDERS	0	SKIN AND SUBCUTANEOUS TISSUE DISORDERS	0	MILD	N		PROBABLE	NOT RECOVERED/NOT RESOLVED	N	N	N	N	N	N	N	TREATMENT	3/2/2013	2/16/2013		16	2	0
CDISCPILOT01	AE	01-701-1188	3	E04	ERYTHEMA	ERYTHEMA	0	ERYTHEMA	0	HLT_0284	0	HLGT_0192	0	SKIN AND SUBCUTANEOUS TISSUE DISORDERS	0	SKIN AND SUBCUTANEOUS TISSUE DISORDERS	0	MODERATE	N		PROBABLE	NOT RECOVERED/NOT RESOLVED	N	N	N	N	N	N	N	TREATMENT	3/16/2013	2/16/2013		30	2	0
CDISCPILOT01	AE	01-701-1188	2	E05	PRURITUS	ITCHING	0	PRURITUS	0	HLT_0778	0	HLGT_0695	0	SKIN AND SUBCUTANEOUS TISSUE DISORDERS	0	SKIN AND SUBCUTANEOUS TISSUE DISORDERS	0	MILD	N		PROBABLE	NOT RECOVERED/NOT RESOLVED	N	N	N	N	N	N	N	TREATMENT	3/2/2013	2/16/2013		16	2	0
CDISCPILOT01	AE	01-701-1188	4	E05	PRURITUS	ITCHING	0	PRURITUS	0	HLT_0778	0	HLGT_0695	0	SKIN AND SUBCUTANEOUS TISSUE DISORDERS	0	SKIN AND SUBCUTANEOUS TISSUE DISORDERS	0	MODERATE	N		PROBABLE	NOT RECOVERED/NOT RESOLVED	N	N	N	N	N	N	N	TREATMENT	3/16/2013	2/16/2013		30	2	0
CDISCPILOT01	AE	01-701-1188	5	E06	URTICARIA	WELTS	0	URTICARIA	0	HLT_0420	0	HLGT_0705	0	SKIN AND SUBCUTANEOUS TISSUE DISORDERS	0	SKIN AND SUBCUTANEOUS TISSUE DISORDERS	0	MILD	N		PROBABLE	NOT RECOVERED/NOT RESOLVED	N	N	N	N	N	N	N	TREATMENT	3/16/2013	3/4/2013		30	18	0
CDISCPILOT01	AE	01-701-1188	6	E06	URTICARIA	WELTS	0	URTICARIA	0	HLT_0420	0	HLGT_0705	0	SKIN AND SUBCUTANEOUS TISSUE DISORDERS	0	SKIN AND SUBCUTANEOUS TISSUE DISORDERS	0	MODERATE	N		PROBABLE	NOT RECOVERED/NOT RESOLVED	N	N	N	N	N	N	N	TREATMENT	3/25/2013	3/4/2013		39	18	0
CDISCPILOT01	AE	01-701-1188	8	E10	URTICARIA	WELTS	0	URTICARIA	0	HLT_0420	0	HLGT_0705	0	SKIN AND SUBCUTANEOUS TISSUE DISORDERS	0	SKIN AND SUBCUTANEOUS TISSUE DISORDERS	0	MILD	N		PROBABLE	NOT RECOVERED/NOT RESOLVED	N	N	N	N	N	N	N	TREATMENT	3/25/2013	3/21/2013		39	35	0
CDISCPILOT01	AE	01-701-1192	13	E13	APPLICATION SITE ERYTHEMA	APPLICATION SITE REDNESS	0	APPLICATION SITE ERYTHEMA	0	HLT_0617	0	HLGT_0152	0	GENERAL DISORDERS AND ADMINISTRATION SITE CONDITIONS	0	GENERAL DISORDERS AND ADMINISTRATION SITE CONDITIONS	0	MILD	N		PROBABLE	NOT RECOVERED/NOT RESOLVED	N	N	N	N	N	N	N	TREATMENT	12/13/2012	12/5/2012		145	137	0
CDISCPILOT01	AE	01-701-1192	15	E12	APPLICATION SITE IRRITATION	APPLICATION SITE BURNING	0	APPLICATION SITE IRRITATION	0	HLT_0061	0	HLGT_0346	0	GENERAL DISORDERS AND ADMINISTRATION SITE CONDITIONS	0	GENERAL DISORDERS AND ADMINISTRATION SITE CONDITIONS	0	MILD	N		PROBABLE	RECOVERED/RESOLVED	N	N	N	N	N	N	N	TREATMENT	1/11/2013	12/5/2012	12/16/2012	174	137	148
CDISCPILOT01	AE	01-701-1192	14	E14	APPLICATION SITE PRURITUS	APPLICATION SITE ITCHING	0	APPLICATION SITE PRURITUS	0	HLT_0317	0	HLGT_0338	0	GENERAL DISORDERS AND ADMINISTRATION SITE CONDITIONS	0	GENERAL DISORDERS AND ADMINISTRATION SITE CONDITIONS	0	MILD	N		PROBABLE	NOT RECOVERED/NOT RESOLVED	N	N	N	N	N	N	N	TREATMENT	12/13/2012	12/5/2012		145	137	0
CDISCPILOT01	AE	01-701-1192	4	E01	COUGH	COUGH	0	COUGH	0	HLT_0701	0	HLGT_0280	0	"RESPIRATORY, THORACIC AND MEDIASTINAL DISORDERS"	0	"RESPIRATORY, THORACIC AND MEDIASTINAL DISORDERS"	0	MODERATE	N		NONE	NOT RECOVERED/NOT RESOLVED	N	N	N	N	N	N	N	SCREENING	9/23/2012	2010-06		64	0	0
CDISCPILOT01	AE	01-701-1192	9	E01	COUGH	COUGH	0	COUGH	0	HLT_0701	0	HLGT_0280	0	"RESPIRATORY, THORACIC AND MEDIASTINAL DISORDERS"	0	"RESPIRATORY, THORACIC AND MEDIASTINAL DISORDERS"	0	MILD	N		NONE	NOT RECOVERED/NOT RESOLVED	N	N	N	N	N	N	N	SCREENING	10/14/2012	2010-06		85	0	0
CDISCPILOT01	AE	01-701-1192	6	E09	ERYTHEMA	ERYTHEMA FACIAL	0	ERYTHEMA	0	HLT_0284	0	HLGT_0192	0	SKIN AND SUBCUTANEOUS TISSUE DISORDERS	0	SKIN AND SUBCUTANEOUS TISSUE DISORDERS	0	MILD	N		NONE	RECOVERED/RESOLVED	N	N	N	N	N	N	N	TREATMENT	9/23/2012	8/7/2012	9/14/2012	64	17	55
CDISCPILOT01	AE	01-701-1192	11	E11	MUSCULAR WEAKNESS	MUSCULAR WEAKNESS	0	MUSCULAR WEAKNESS	0	HLT_0444	0	HLGT_0211	0	MUSCULOSKELETAL AND CONNECTIVE TISSUE DISORDERS	0	MUSCULOSKELETAL AND CONNECTIVE TISSUE DISORDERS	0	MODERATE	N		NONE	RECOVERED/RESOLVED	N	N	N	N	N	N	N	TREATMENT	10/14/2012	9/7/2012	9/30/2012	85	48	71
CDISCPILOT01	AE	01-701-1192	1	E06	NASAL MUCOSA BIOPSY	NASAL MUCOSA BIOPSY	0	NASAL MUCOSA BIOPSY	0	HLT_0680	0	HLGT_0396	0	INVESTIGATIONS	0	INVESTIGATIONS	0	MILD	N		NONE	RECOVERED/RESOLVED	N	N	N	N	N	N	N	TREATMENT	8/7/2012	8/3/2012	8/3/2012	17	13	13
CDISCPILOT01	AE	01-701-1192	10	E10	PNEUMONIA	PNEUMONIA	0	PNEUMONIA	0	HLT_0251	0	HLGT_0671	0	INFECTIONS AND INFESTATIONS	0	INFECTIONS AND INFESTATIONS	0	MODERATE	N		NONE	RECOVERED/RESOLVED	N	N	N	N	Y	N	N	TREATMENT	10/14/2012	9/7/2012	10/6/2012	85	48	77
CDISCPILOT01	AE	01-701-1192	5	E08	SECRETION DISCHARGE	SECRETION DISCHARGE	0	SECRETION DISCHARGE	0	HLT_0683	0	HLGT_0575	0	GENERAL DISORDERS AND ADMINISTRATION SITE CONDITIONS	0	GENERAL DISORDERS AND ADMINISTRATION SITE CONDITIONS	0	MILD	N		NONE	RECOVERED/RESOLVED	N	N	N	N	N	N	N	TREATMENT	9/23/2012	8/7/2012	9/14/2012	64	17	55
CDISCPILOT01	AE	01-701-1203	1	E05	EYE LASER SURGERY	EYE LASER SURGERY	0	EYE LASER SURGERY	0	HLT_0355	0	HLGT_0189	0	SURGICAL AND MEDICAL PROCEDURES	0	SURGICAL AND MEDICAL PROCEDURES	0	MILD	N		NONE	RECOVERED/RESOLVED	N	N	N	N	N	N	N	TREATMENT	3/30/2013	3/21/2013	3/21/2013	57	48	48
CDISCPILOT01	AE	01-701-1211	5	E05	APPLICATION SITE ERYTHEMA	APPLICATION SITE REDNESS	0	APPLICATION SITE ERYTHEMA	0	HLT_0617	0	HLGT_0152	0	GENERAL DISORDERS AND ADMINISTRATION SITE CONDITIONS	0	GENERAL DISORDERS AND ADMINISTRATION SITE CONDITIONS	0	MILD	N		POSSIBLE	NOT RECOVERED/NOT RESOLVED	N	N	N	N	N	N	N	TREATMENT	12/11/2012	11/29/2012		27	15	0
CDISCPILOT01	AE	01-701-1211	1	E08	APPLICATION SITE PRURITUS	APPLICATION SITE ITCHING	0	APPLICATION SITE PRURITUS	0	HLT_0317	0	HLGT_0338	0	GENERAL DISORDERS AND ADMINISTRATION SITE CONDITIONS	0	GENERAL DISORDERS AND ADMINISTRATION SITE CONDITIONS	0	MILD	N		POSSIBLE	NOT RECOVERED/NOT RESOLVED	N	N	N	N	N	N	N	TREATMENT	11/28/2012	11/16/2012		14	2	0
CDISCPILOT01	AE	01-701-1211	7	E12	CONFUSIONAL STATE	CONFUSION	0	CONFUSIONAL STATE	0	HLT_0642	0	HLGT_0329	0	PSYCHIATRIC DISORDERS	0	PSYCHIATRIC DISORDERS	0	MODERATE	N		NONE	NOT RECOVERED/NOT RESOLVED	N	N	N	N	N	N	N	TREATMENT	1/14/2013	1/11/2013		61	58	0
CDISCPILOT01	AE	01-701-1211	8	E13	DYSPNOEA	SHORTNESS OF BREATH	0	DYSPNOEA	0	HLT_0296	0	HLGT_0255	0	"RESPIRATORY, THORACIC AND MEDIASTINAL DISORDERS"	0	"RESPIRATORY, THORACIC AND MEDIASTINAL DISORDERS"	0	MODERATE	N		NONE	NOT RECOVERED/NOT RESOLVED	N	N	N	N	N	N	N	TREATMENT	1/14/2013	1/11/2013		61	58	0
CDISCPILOT01	AE	01-701-1211	4	E09	INCONTINENCE	INCONTINENCE	0	INCONTINENCE	0	HLT_0560	0	HLGT_0503	0	RENAL AND URINARY DISORDERS	0	RENAL AND URINARY DISORDERS	0	MILD	N		NONE	NOT RECOVERED/NOT RESOLVED	N	N	N	N	N	N	N	TREATMENT	11/28/2012	11/22/2012		14	8	0
CDISCPILOT01	AE	01-701-1211	2	E03	JOINT DISLOCATION	SHOULDER DISLOCATION	0	JOINT DISLOCATION	0	HLT_0035	0	HLGT_0227	0	"INJURY, POISONING AND PROCEDURAL COMPLICATIONS"	0	"INJURY, POISONING AND PROCEDURAL COMPLICATIONS"	0	MODERATE	N		NONE	RECOVERED/RESOLVED	N	N	N	N	N	N	N	TREATMENT	11/28/2012	11/21/2012	11/21/2012	14	7	7
CDISCPILOT01	AE	01-701-1211	3	E04	SHOULDER PAIN	SHOULDER PAIN	0	SHOULDER PAIN	0	HLT_0527	0	HLGT_0288	0	MUSCULOSKELETAL AND CONNECTIVE TISSUE DISORDERS	0	MUSCULOSKELETAL AND CONNECTIVE TISSUE DISORDERS	0	MILD	N		NONE	NOT RECOVERED/NOT RESOLVED	N	N	N	N	N	N	N	TREATMENT	11/28/2012	11/21/2012		14	7	0
CDISCPILOT01	AE	01-701-1211	6	E06	SKIN LACERATION	LACERATION OF FACE	0	SKIN LACERATION	0	HLT_0075	0	HLGT_0118	0	"INJURY, POISONING AND PROCEDURAL COMPLICATIONS"	0	"INJURY, POISONING AND PROCEDURAL COMPLICATIONS"	0	MILD	N		NONE	NOT RECOVERED/NOT RESOLVED	N	N	N	N	N	N	N	TREATMENT	12/11/2012	12/9/2012		27	25	0
CDISCPILOT01	AE	01-701-1211	9	E11	SUDDEN DEATH	SUDDEN DEATH	0	SUDDEN DEATH	0	HLT_0142	0	HLGT_0272	0	GENERAL DISORDERS AND ADMINISTRATION SITE CONDITIONS	0	GENERAL DISORDERS AND ADMINISTRATION SITE CONDITIONS	0	SEVERE	N		NONE	FATAL	N	N	N	Y	N	Y	N	TREATMENT	1/14/2013	1/14/2013	1/14/2013	61	61	61
CDISCPILOT01	AE	01-701-1239	5	E13	APPLICATION SITE IRRITATION	APPLICATION SITE IRRITATION	0	APPLICATION SITE IRRITATION	0	HLT_0061	0	HLGT_0346	0	GENERAL DISORDERS AND ADMINISTRATION SITE CONDITIONS	0	GENERAL DISORDERS AND ADMINISTRATION SITE CONDITIONS	0	MILD	N		PROBABLE	RECOVERED/RESOLVED	N	N	N	N	N	N	N	TREATMENT	2/10/2014	1/20/2014	2/8/2014	31	10	29
CDISCPILOT01	AE	01-701-1239	1	E11	ERYTHEMA	ERYTHEMA	0	ERYTHEMA	0	HLT_0284	0	HLGT_0192	0	SKIN AND SUBCUTANEOUS TISSUE DISORDERS	0	SKIN AND SUBCUTANEOUS TISSUE DISORDERS	0	MILD	N		POSSIBLE	NOT RECOVERED/NOT RESOLVED	N	N	N	N	N	N	N	TREATMENT	1/25/2014	1/12/2014		15	2	0
CDISCPILOT01	AE	01-701-1239	6	E11	ERYTHEMA	ERYTHEMA	0	ERYTHEMA	0	HLT_0284	0	HLGT_0192	0	SKIN AND SUBCUTANEOUS TISSUE DISORDERS	0	SKIN AND SUBCUTANEOUS TISSUE DISORDERS	0	MODERATE	N		POSSIBLE	NOT RECOVERED/NOT RESOLVED	N	N	N	N	N	N	N	TREATMENT	2/19/2014	1/12/2014		40	2	0
CDISCPILOT01	AE	01-701-1239	9	E16	FATIGUE	FATIGUE	0	FATIGUE	0	HLT_0043	0	HLGT_0181	0	GENERAL DISORDERS AND ADMINISTRATION SITE CONDITIONS	0	GENERAL DISORDERS AND ADMINISTRATION SITE CONDITIONS	0	MILD	N		REMOTE	NOT RECOVERED/NOT RESOLVED	N	N	N	N	N	N	N	SCREENING	4/2/2014	2014-03		82	0	0
CDISCPILOT01	AE	01-701-1239	10	E17	HORDEOLUM	STYE	0	HORDEOLUM	0	HLT_0604	0	HLGT_0290	0	INFECTIONS AND INFESTATIONS	0	INFECTIONS AND INFESTATIONS	0	MILD	N		NONE	NOT RECOVERED/NOT RESOLVED	N	N	N	N	N	N	N	SCREENING	5/2/2014	2014-04		112	0	0
CDISCPILOT01	AE	01-701-1239	3	E12	PRURITUS	ITCHING	0	PRURITUS	0	HLT_0778	0	HLGT_0695	0	SKIN AND SUBCUTANEOUS TISSUE DISORDERS	0	SKIN AND SUBCUTANEOUS TISSUE DISORDERS	0	MILD	N		POSSIBLE	NOT RECOVERED/NOT RESOLVED	N	N	N	N	N	N	N	TREATMENT	1/25/2014	1/13/2014		15	3	0
CDISCPILOT01	AE	01-701-1239	2	E15	SKIN ODOUR ABNORMAL	SKIN ODOR ABNORMAL	0	SKIN ODOUR ABNORMAL	0	HLT_0510	0	HLGT_0184	0	SKIN AND SUBCUTANEOUS TISSUE DISORDERS	0	SKIN AND SUBCUTANEOUS TISSUE DISORDERS	0	MILD	N		REMOTE	NOT RECOVERED/NOT RESOLVED	N	N	N	N	N	N	N	TREATMENT	1/25/2014	1/12/2014		15	2	0
CDISCPILOT01	AE	01-701-1239	8	E14	UPPER RESPIRATORY TRACT INFECTION	UPPER RESPIRATORY INFECTION	0	UPPER RESPIRATORY TRACT INFECTION	0	HLT_0520	0	HLGT_0489	0	INFECTIONS AND INFESTATIONS	0	INFECTIONS AND INFESTATIONS	0	MILD	N		NONE	RECOVERED/RESOLVED	N	N	N	N	N	N	N	TREATMENT	4/2/2014	2/20/2014	3/12/2014	82	41	61
CDISCPILOT01	AE	01-701-1275	9	E09	COUGH	COUGH	0	COUGH	0	HLT_0701	0	HLGT_0280	0	"RESPIRATORY, THORACIC AND MEDIASTINAL DISORDERS"	0	"RESPIRATORY, THORACIC AND MEDIASTINAL DISORDERS"	0	MILD	N		NONE	RECOVERED/RESOLVED	N	N	N	N	N	N	N	TREATMENT	4/5/2014	3/12/2014	3/27/2014	58	34	49
CDISCPILOT01	AE	01-701-1275	12	E06	ERYTHEMA	ERYTHEMA	0	ERYTHEMA	0	HLT_0284	0	HLGT_0192	0	SKIN AND SUBCUTANEOUS TISSUE DISORDERS	0	SKIN AND SUBCUTANEOUS TISSUE DISORDERS	0	MILD	N		POSSIBLE	RECOVERED/RESOLVED	N	N	N	N	N	N	N	TREATMENT	6/14/2014	2/24/2014	6/12/2014	128	18	126
CDISCPILOT01	AE	01-701-1275	10	E10	NASAL CONGESTION	NASAL CONGESTION	0	NASAL CONGESTION	0	HLT_0118	0	HLGT_0549	0	"RESPIRATORY, THORACIC AND MEDIASTINAL DISORDERS"	0	"RESPIRATORY, THORACIC AND MEDIASTINAL DISORDERS"	0	MILD	N		NONE	RECOVERED/RESOLVED	N	N	N	N	N	N	N	TREATMENT	4/5/2014	3/12/2014	3/27/2014	58	34	49
CDISCPILOT01	AE	01-701-1275	11	E04	NAUSEA	NAUSEA	0	NAUSEA	0	HLT_0742	0	HLGT_0326	0	GASTROINTESTINAL DISORDERS	0	GASTROINTESTINAL DISORDERS	0	MILD	N		POSSIBLE	RECOVERED/RESOLVED	N	N	N	N	N	N	N	TREATMENT	6/14/2014	2/13/2014	6/3/2014	128	7	117
CDISCPILOT01	AE	01-701-1275	14	E08	PAROSMIA	STRANGE SMELL SENSATION	0	PAROSMIA	0	HLT_0258	0	HLGT_0471	0	NERVOUS SYSTEM DISORDERS	0	NERVOUS SYSTEM DISORDERS	0	MILD	N		POSSIBLE	RECOVERED/RESOLVED	N	N	N	N	N	N	N	TREATMENT	6/14/2014	2/24/2014	6/3/2014	128	18	117
CDISCPILOT01	AE	01-701-1275	15	E11	PRURITUS	ITCHING	0	PRURITUS	0	HLT_0778	0	HLGT_0695	0	SKIN AND SUBCUTANEOUS TISSUE DISORDERS	0	SKIN AND SUBCUTANEOUS TISSUE DISORDERS	0	MILD	N		POSSIBLE	RECOVERED/RESOLVED	N	N	N	N	N	N	N	TREATMENT	6/14/2014	2/24/2014	6/12/2014	128	18	126
CDISCPILOT01	AE	01-701-1275	13	E07	SALIVARY HYPERSECRETION	HYPERSALIVATION	0	SALIVARY HYPERSECRETION	0	HLT_0374	0	HLGT_0488	0	GASTROINTESTINAL DISORDERS	0	GASTROINTESTINAL DISORDERS	0	MILD	N		POSSIBLE	RECOVERED/RESOLVED	N	N	N	N	N	N	N	TREATMENT	6/14/2014	2/24/2014	6/3/2014	128	18	117
CDISCPILOT01	AE	01-701-1275	2	E05	VOMITING	VOMITING	0	VOMITING	0	HLT_0016	0	HLGT_0350	0	GASTROINTESTINAL DISORDERS	0	GASTROINTESTINAL DISORDERS	0	MILD	N		POSSIBLE	RECOVERED/RESOLVED	N	N	N	N	N	N	N	TREATMENT	3/7/2014	2/23/2014	2/23/2014	29	17	17
CDISCPILOT01	AE	01-701-1287	3	E04	APPLICATION SITE ERYTHEMA	APPLICATION SITE REDNESS	0	APPLICATION SITE ERYTHEMA	0	HLT_0617	0	HLGT_0152	0	GENERAL DISORDERS AND ADMINISTRATION SITE CONDITIONS	0	GENERAL DISORDERS AND ADMINISTRATION SITE CONDITIONS	0	MILD	N		PROBABLE	NOT RECOVERED/NOT RESOLVED	N	N	N	N	N	N	N	TREATMENT	3/21/2014	3/9/2014		56	44	0
CDISCPILOT01	AE	01-701-1287	2	E03	APPLICATION SITE PRURITUS	APPLICATION SITE ITCHING	0	APPLICATION SITE PRURITUS	0	HLT_0317	0	HLGT_0338	0	GENERAL DISORDERS AND ADMINISTRATION SITE CONDITIONS	0	GENERAL DISORDERS AND ADMINISTRATION SITE CONDITIONS	0	MILD	N		POSSIBLE	NOT RECOVERED/NOT RESOLVED	N	N	N	N	N	N	N	TREATMENT	3/6/2014	2/22/2014		41	29	0
CDISCPILOT01	AE	01-701-1287	5	E05	RHINORRHOEA	RUNNY NOSE	0	RHINORRHOEA	0	HLT_0635	0	HLGT_0460	0	"RESPIRATORY, THORACIC AND MEDIASTINAL DISORDERS"	0	"RESPIRATORY, THORACIC AND MEDIASTINAL DISORDERS"	0	MILD	N		NONE	RECOVERED/RESOLVED	N	N	N	N	N	N	N	TREATMENT	7/26/2014	7/9/2014	7/12/2014	183	166	169
CDISCPILOT01	AE	01-701-1287	1	E02	SALIVARY HYPERSECRETION	INCREASED SALIVATION	0	SALIVARY HYPERSECRETION	0	HLT_0374	0	HLGT_0488	0	GASTROINTESTINAL DISORDERS	0	GASTROINTESTINAL DISORDERS	0	MILD	N		NONE	NOT RECOVERED/NOT RESOLVED	N	N	N	N	N	N	N	TREATMENT	2/11/2014	1/26/2014		18	2	0
CDISCPILOT01	AE	01-701-1294	3	E08	APPLICATION SITE ERYTHEMA	APPLICATION SITE REDNESS	0	APPLICATION SITE ERYTHEMA	0	HLT_0617	0	HLGT_0152	0	GENERAL DISORDERS AND ADMINISTRATION SITE CONDITIONS	0	GENERAL DISORDERS AND ADMINISTRATION SITE CONDITIONS	0	MILD	N		PROBABLE	NOT RECOVERED/NOT RESOLVED	N	N	N	N	N	N	N	TREATMENT	5/22/2013	5/19/2013		60	57	0
CDISCPILOT01	AE	01-701-1294	5	E08	APPLICATION SITE ERYTHEMA	APPLICATION SITE REDNESS	0	APPLICATION SITE ERYTHEMA	0	HLT_0617	0	HLGT_0152	0	GENERAL DISORDERS AND ADMINISTRATION SITE CONDITIONS	0	GENERAL DISORDERS AND ADMINISTRATION SITE CONDITIONS	0	MODERATE	N		PROBABLE	NOT RECOVERED/NOT RESOLVED	N	N	N	N	N	N	N	TREATMENT	6/14/2013	5/19/2013		83	57	0
CDISCPILOT01	AE	01-701-1294	1	E06	APPLICATION SITE PRURITUS	APPLICATION SITE ITCHING	0	APPLICATION SITE PRURITUS	0	HLT_0317	0	HLGT_0338	0	GENERAL DISORDERS AND ADMINISTRATION SITE CONDITIONS	0	GENERAL DISORDERS AND ADMINISTRATION SITE CONDITIONS	0	MODERATE	N		NONE	RECOVERED/RESOLVED	N	N	N	N	N	N	N	SCREENING	3/24/2013	3/22/2013	3/23/2013	1	-2	-1
CDISCPILOT01	AE	01-701-1294	2	E07	APPLICATION SITE PRURITUS	APPLICATION SITE ITCHING	0	APPLICATION SITE PRURITUS	0	HLT_0317	0	HLGT_0338	0	GENERAL DISORDERS AND ADMINISTRATION SITE CONDITIONS	0	GENERAL DISORDERS AND ADMINISTRATION SITE CONDITIONS	0	MILD	N		POSSIBLE	NOT RECOVERED/NOT RESOLVED	N	N	N	N	N	N	N	TREATMENT	5/22/2013	5/19/2013		60	57	0
CDISCPILOT01	AE	01-701-1294	4	E07	APPLICATION SITE PRURITUS	APPLICATION SITE ITCHING	0	APPLICATION SITE PRURITUS	0	HLT_0317	0	HLGT_0338	0	GENERAL DISORDERS AND ADMINISTRATION SITE CONDITIONS	0	GENERAL DISORDERS AND ADMINISTRATION SITE CONDITIONS	0	MODERATE	N		POSSIBLE	NOT RECOVERED/NOT RESOLVED	N	N	N	N	N	N	N	TREATMENT	6/14/2013	5/19/2013		83	57	0
CDISCPILOT01	AE	01-701-1294	6	E09	RASH ERYTHEMATOUS	ERYTHEMATOUS RASH	0	RASH ERYTHEMATOUS	0	HLT_0336	0	HLGT_0701	0	SKIN AND SUBCUTANEOUS TISSUE DISORDERS	0	SKIN AND SUBCUTANEOUS TISSUE DISORDERS	0	MODERATE	N		PROBABLE	NOT RECOVERED/NOT RESOLVED	N	N	N	N	N	N	N	TREATMENT	6/14/2013	6/10/2013		83	79	0
CDISCPILOT01	AE	01-701-1302	16	E27	APPLICATION SITE ERYTHEMA	APPLICATION SITE REDNESS	0	APPLICATION SITE ERYTHEMA	0	HLT_0617	0	HLGT_0152	0	GENERAL DISORDERS AND ADMINISTRATION SITE CONDITIONS	0	GENERAL DISORDERS AND ADMINISTRATION SITE CONDITIONS	0	MILD	N		PROBABLE	NOT RECOVERED/NOT RESOLVED	N	N	N	N	N	N	N	TREATMENT	10/22/2013	10/15/2013		55	48	0
CDISCPILOT01	AE	01-701-1302	1	E21	APPLICATION SITE PERSPIRATION	APPLICATION SITE PERSPIRATION	0	APPLICATION SITE PERSPIRATION	0	HLT_0283	0	HLGT_0403	0	GENERAL DISORDERS AND ADMINISTRATION SITE CONDITIONS	0	GENERAL DISORDERS AND ADMINISTRATION SITE CONDITIONS	0	MILD	N		POSSIBLE	NOT RECOVERED/NOT RESOLVED	N	N	N	N	N	N	N	TREATMENT	9/15/2013	8/30/2013		18	2	0
CDISCPILOT01	AE	01-701-1302	17	E28	APPLICATION SITE PRURITUS	APPLICATION SITE ITCHING	0	APPLICATION SITE PRURITUS	0	HLT_0317	0	HLGT_0338	0	GENERAL DISORDERS AND ADMINISTRATION SITE CONDITIONS	0	GENERAL DISORDERS AND ADMINISTRATION SITE CONDITIONS	0	MILD	N		PROBABLE	NOT RECOVERED/NOT RESOLVED	N	N	N	N	N	N	N	TREATMENT	10/22/2013	10/15/2013		55	48	0
CDISCPILOT01	AE	01-701-1302	15	E19	CONTUSION	BRUISE	0	CONTUSION	0	HLT_0713	0	HLGT_0381	0	"INJURY, POISONING AND PROCEDURAL COMPLICATIONS"	0	"INJURY, POISONING AND PROCEDURAL COMPLICATIONS"	0	MILD	N		REMOTE	RECOVERED/RESOLVED	N	N	N	N	N	N	N	TREATMENT	10/22/2013	9/5/2013	10/8/2013	55	8	41
CDISCPILOT01	AE	01-701-1302	9	E17	DIZZINESS	DIZZY	0	DIZZINESS	0	HLT_0619	0	HLGT_0751	0	NERVOUS SYSTEM DISORDERS	0	NERVOUS SYSTEM DISORDERS	0	MODERATE	N		REMOTE	RECOVERED/RESOLVED	N	N	N	N	N	N	N	TREATMENT	9/15/2013	9/2/2013	9/3/2013	18	5	6
CDISCPILOT01	AE	01-701-1302	11	E20	DIZZINESS	LIGHTHEADEDNESS	0	DIZZINESS	0	HLT_0619	0	HLGT_0751	0	NERVOUS SYSTEM DISORDERS	0	NERVOUS SYSTEM DISORDERS	0	MILD	N		POSSIBLE	NOT RECOVERED/NOT RESOLVED	N	N	N	N	N	N	N	TREATMENT	9/15/2013	9/4/2013		18	7	0
CDISCPILOT01	AE	01-701-1302	14	E25	EPISTAXIS	NOSE BLEED	0	EPISTAXIS	0	HLT_0386	0	HLGT_0577	0	"RESPIRATORY, THORACIC AND MEDIASTINAL DISORDERS"	0	"RESPIRATORY, THORACIC AND MEDIASTINAL DISORDERS"	0	MILD	N		REMOTE	NOT RECOVERED/NOT RESOLVED	N	N	N	N	N	N	N	TREATMENT	10/8/2013	9/30/2013		41	33	0
CDISCPILOT01	AE	01-701-1302	21	E31	FEELING ABNORMAL	FOGGY FEELING IN HEAD	0	FEELING ABNORMAL	0	HLT_0524	0	HLGT_0749	0	GENERAL DISORDERS AND ADMINISTRATION SITE CONDITIONS	0	GENERAL DISORDERS AND ADMINISTRATION SITE CONDITIONS	0	MILD	N		POSSIBLE	NOT RECOVERED/NOT RESOLVED	N	N	N	N	N	N	N	TREATMENT	11/5/2013	10/24/2013		69	57	0
CDISCPILOT01	AE	01-701-1302	13	E23	HEADACHE	HEADACHE	0	HEADACHE	0	HLT_0064	0	HLGT_0344	0	NERVOUS SYSTEM DISORDERS	0	NERVOUS SYSTEM DISORDERS	0	MILD	N		NONE	NOT RECOVERED/NOT RESOLVED	N	N	N	N	N	N	N	TREATMENT	9/15/2013	9/15/2013		18	18	0
CDISCPILOT01	AE	01-701-1302	2	E24	HYPERHIDROSIS	PERSPIRATION EXCESSIVE	0	HYPERHIDROSIS	0	HLT_0587	0	HLGT_0005	0	SKIN AND SUBCUTANEOUS TISSUE DISORDERS	0	SKIN AND SUBCUTANEOUS TISSUE DISORDERS	0	MILD	N		POSSIBLE	NOT RECOVERED/NOT RESOLVED	N	N	N	N	N	N	N	TREATMENT	9/15/2013	8/30/2013		18	2	0
CDISCPILOT01	AE	01-701-1302	23	E33	LIBIDO DECREASED	LIBIDO DECREASED	0	LIBIDO DECREASED	0	HLT_0338	0	HLGT_0496	0	PSYCHIATRIC DISORDERS	0	PSYCHIATRIC DISORDERS	0	MILD	N		POSSIBLE	NOT RECOVERED/NOT RESOLVED	N	N	N	N	N	N	N	TREATMENT	11/5/2013	10/24/2013		69	57	0
CDISCPILOT01	AE	01-701-1302	22	E32	LISTLESS	LISTLESSNESS	0	LISTLESS	0	HLT_0657	0	HLGT_0124	0	PSYCHIATRIC DISORDERS	0	PSYCHIATRIC DISORDERS	0	MILD	N		POSSIBLE	NOT RECOVERED/NOT RESOLVED	N	N	N	N	N	N	N	TREATMENT	11/5/2013	10/24/2013		69	57	0
CDISCPILOT01	AE	01-701-1302	8	E16	MALAISE	MALAISE	0	MALAISE	0	HLT_0456	0	HLGT_0178	0	GENERAL DISORDERS AND ADMINISTRATION SITE CONDITIONS	0	GENERAL DISORDERS AND ADMINISTRATION SITE CONDITIONS	0	MILD	N		REMOTE	NOT RECOVERED/NOT RESOLVED	N	N	N	N	N	N	N	TREATMENT	9/15/2013	9/2/2013		18	5	0
CDISCPILOT01	AE	01-701-1302	18	E16	MALAISE	MALAISE	0	MALAISE	0	HLT_0456	0	HLGT_0178	0	GENERAL DISORDERS AND ADMINISTRATION SITE CONDITIONS	0	GENERAL DISORDERS AND ADMINISTRATION SITE CONDITIONS	0	MODERATE	N		REMOTE	NOT RECOVERED/NOT RESOLVED	N	N	N	N	N	N	N	TREATMENT	11/5/2013	9/2/2013		69	5	0
CDISCPILOT01	AE	01-701-1302	10	E18	MYALGIA	MYALGIA	0	MYALGIA	0	HLT_0700	0	HLGT_0121	0	MUSCULOSKELETAL AND CONNECTIVE TISSUE DISORDERS	0	MUSCULOSKELETAL AND CONNECTIVE TISSUE DISORDERS	0	MILD	N		POSSIBLE	NOT RECOVERED/NOT RESOLVED	N	N	N	N	N	N	N	TREATMENT	9/15/2013	9/2/2013		18	5	0
CDISCPILOT01	AE	01-701-1302	5	E13	NASAL CONGESTION	NASAL CONGESTION	0	NASAL CONGESTION	0	HLT_0118	0	HLGT_0549	0	"RESPIRATORY, THORACIC AND MEDIASTINAL DISORDERS"	0	"RESPIRATORY, THORACIC AND MEDIASTINAL DISORDERS"	0	MILD	N		NONE	NOT RECOVERED/NOT RESOLVED	N	N	N	N	N	N	N	TREATMENT	9/15/2013	9/1/2013		18	4	0
CDISCPILOT01	AE	01-701-1302	4	E22	PAIN	STINGING	0	PAIN	0	HLT_0314	0	HLGT_0478	0	GENERAL DISORDERS AND ADMINISTRATION SITE CONDITIONS	0	GENERAL DISORDERS AND ADMINISTRATION SITE CONDITIONS	0	MILD	N		POSSIBLE	NOT RECOVERED/NOT RESOLVED	N	N	N	N	N	N	N	TREATMENT	9/15/2013	8/31/2013		18	3	0
CDISCPILOT01	AE	01-701-1302	6	E14	PHARYNGOLARYNGEAL PAIN	SORE THROAT	0	PHARYNGOLARYNGEAL PAIN	0	HLT_0130	0	HLGT_0402	0	"RESPIRATORY, THORACIC AND MEDIASTINAL DISORDERS"	0	"RESPIRATORY, THORACIC AND MEDIASTINAL DISORDERS"	0	MILD	N		NONE	NOT RECOVERED/NOT RESOLVED	N	N	N	N	N	N	N	TREATMENT	9/15/2013	9/2/2013		18	5	0
CDISCPILOT01	AE	01-701-1302	7	E15	PRODUCTIVE COUGH	PRODUCTIVE COUGH	0	PRODUCTIVE COUGH	0	HLT_0545	0	HLGT_0681	0	"RESPIRATORY, THORACIC AND MEDIASTINAL DISORDERS"	0	"RESPIRATORY, THORACIC AND MEDIASTINAL DISORDERS"	0	MILD	N		NONE	NOT RECOVERED/NOT RESOLVED	N	N	N	N	N	N	N	TREATMENT	9/15/2013	9/2/2013		18	5	0
CDISCPILOT01	AE	01-701-1302	19	E29	RESPIRATORY TRACT CONGESTION	RESPIRATORY TRACT CONGESTION	0	RESPIRATORY TRACT CONGESTION	0	HLT_0330	0	HLGT_0424	0	"RESPIRATORY, THORACIC AND MEDIASTINAL DISORDERS"	0	"RESPIRATORY, THORACIC AND MEDIASTINAL DISORDERS"	0	MILD	N		NONE	NOT RECOVERED/NOT RESOLVED	N	N	N	N	N	N	N	TREATMENT	11/5/2013	10/23/2013		69	56	0
CDISCPILOT01	AE	01-701-1302	20	E30	RHINITIS	CORYZA	0	RHINITIS	0	HLT_0239	0	HLGT_0322	0	INFECTIONS AND INFESTATIONS	0	INFECTIONS AND INFESTATIONS	0	MILD	N		NONE	NOT RECOVERED/NOT RESOLVED	N	N	N	N	N	N	N	TREATMENT	11/5/2013	10/23/2013		69	56	0
CDISCPILOT01	AE	01-701-1302	3	E26	STOMACH DISCOMFORT	STOMACH UPSET	0	STOMACH DISCOMFORT	0	HLT_0065	0	HLGT_0183	0	GASTROINTESTINAL DISORDERS	0	GASTROINTESTINAL DISORDERS	0	MILD	N		POSSIBLE	NOT RECOVERED/NOT RESOLVED	N	N	N	N	N	N	N	TREATMENT	9/15/2013	8/30/2013		18	2	0
CDISCPILOT01	AE	01-701-1317	3	E13	APPLICATION SITE ERYTHEMA	APPLICATION SITE REDNESS	0	APPLICATION SITE ERYTHEMA	0	HLT_0617	0	HLGT_0152	0	GENERAL DISORDERS AND ADMINISTRATION SITE CONDITIONS	0	GENERAL DISORDERS AND ADMINISTRATION SITE CONDITIONS	0	MILD	N		POSSIBLE	NOT RECOVERED/NOT RESOLVED	N	N	N	N	N	N	N	TREATMENT	7/3/2014	6/23/2014		43	33	0
CDISCPILOT01	AE	01-701-1317	4	E14	APPLICATION SITE PRURITUS	APPLICATION SITE ITCHING	0	APPLICATION SITE PRURITUS	0	HLT_0317	0	HLGT_0338	0	GENERAL DISORDERS AND ADMINISTRATION SITE CONDITIONS	0	GENERAL DISORDERS AND ADMINISTRATION SITE CONDITIONS	0	MILD	N		POSSIBLE	NOT RECOVERED/NOT RESOLVED	N	N	N	N	N	N	N	TREATMENT	7/3/2014	6/23/2014		43	33	0
CDISCPILOT01	AE	01-701-1317	5	E15	APPLICATION SITE URTICARIA	APPLICATION SITE URTICARIA	0	APPLICATION SITE URTICARIA	0	HLT_0196	0	HLGT_0233	0	GENERAL DISORDERS AND ADMINISTRATION SITE CONDITIONS	0	GENERAL DISORDERS AND ADMINISTRATION SITE CONDITIONS	0	MILD	N		POSSIBLE	NOT RECOVERED/NOT RESOLVED	N	N	N	N	N	N	N	TREATMENT	7/3/2014	6/23/2014		43	33	0
CDISCPILOT01	AE	01-701-1317	2	E12	CYST	CYST	0	CYST	0	HLT_0763	0	HLGT_0341	0	GENERAL DISORDERS AND ADMINISTRATION SITE CONDITIONS	0	GENERAL DISORDERS AND ADMINISTRATION SITE CONDITIONS	0	MILD	N		NONE	NOT RECOVERED/NOT RESOLVED	N	N	N	N	N	N	N	SCREENING	5/20/2014	5/13/2014		-2	-9	0
CDISCPILOT01	AE	01-701-1317	6	E16	DEPRESSED MOOD	DEPRESSED MOOD	0	DEPRESSED MOOD	0	HLT_0784	0	HLGT_0122	0	PSYCHIATRIC DISORDERS	0	PSYCHIATRIC DISORDERS	0	MILD	N		POSSIBLE	NOT RECOVERED/NOT RESOLVED	N	N	N	N	N	N	N	TREATMENT	7/22/2014	7/4/2014		62	44	0
CDISCPILOT01	AE	01-701-1317	7	E16	DEPRESSED MOOD	DEPRESSED MOOD	0	DEPRESSED MOOD	0	HLT_0784	0	HLGT_0122	0	PSYCHIATRIC DISORDERS	0	PSYCHIATRIC DISORDERS	0	MODERATE	N		POSSIBLE	NOT RECOVERED/NOT RESOLVED	N	N	N	N	N	N	N	TREATMENT	10/9/2014	7/4/2014		141	44	0
CDISCPILOT01	AE	01-701-1317	9	E18	DYSPHONIA	HOARSENESS	0	DYSPHONIA	0	HLT_0073	0	HLGT_0274	0	"RESPIRATORY, THORACIC AND MEDIASTINAL DISORDERS"	0	"RESPIRATORY, THORACIC AND MEDIASTINAL DISORDERS"	0	MILD	N		REMOTE	NOT RECOVERED/NOT RESOLVED	N	N	N	N	N	N	N	TREATMENT	11/6/2014	11/3/2014		169	166	0
CDISCPILOT01	AE	01-701-1317	8	E17	FATIGUE	TIREDNESS	0	FATIGUE	0	HLT_0043	0	HLGT_0181	0	GENERAL DISORDERS AND ADMINISTRATION SITE CONDITIONS	0	GENERAL DISORDERS AND ADMINISTRATION SITE CONDITIONS	0	MILD	N		REMOTE	NOT RECOVERED/NOT RESOLVED	N	N	N	N	N	N	N	TREATMENT	10/9/2014	9/12/2014		141	114	0
CDISCPILOT01	AE	01-701-1317	1	E11	ONYCHOMYCOSIS	ONYCHOMYCOSIS	0	ONYCHOMYCOSIS	0	HLT_0275	0	HLGT_0243	0	INFECTIONS AND INFESTATIONS	0	INFECTIONS AND INFESTATIONS	0	MILD	N		NONE	NOT RECOVERED/NOT RESOLVED	N	N	N	N	N	N	N	SCREENING	5/20/2014	5/13/2014		-2	-9	0
CDISCPILOT01	AE	01-701-1324	1	E04	APPLICATION SITE ERYTHEMA	APPLICATION SITE ERYTHEMA	0	APPLICATION SITE ERYTHEMA	0	HLT_0617	0	HLGT_0152	0	GENERAL DISORDERS AND ADMINISTRATION SITE CONDITIONS	0	GENERAL DISORDERS AND ADMINISTRATION SITE CONDITIONS	0	MILD	N		PROBABLE	NOT RECOVERED/NOT RESOLVED	N	N	N	N	N	N	N	TREATMENT	10/30/2012	10/22/2012		29	21	0
CDISCPILOT01	AE	01-701-1324	2	E06	APPLICATION SITE PRURITUS	APPLICATION SITE ITCHING	0	APPLICATION SITE PRURITUS	0	HLT_0317	0	HLGT_0338	0	GENERAL DISORDERS AND ADMINISTRATION SITE CONDITIONS	0	GENERAL DISORDERS AND ADMINISTRATION SITE CONDITIONS	0	MILD	N		PROBABLE	NOT RECOVERED/NOT RESOLVED	N	N	N	N	N	N	N	TREATMENT	12/25/2012	12/2/2012		85	62	0
CDISCPILOT01	AE	01-701-1324	4	E05	APPLICATION SITE VESICLES	APPLICATION SITE BLISTER	0	APPLICATION SITE VESICLES	0	HLT_0180	0	HLGT_0576	0	GENERAL DISORDERS AND ADMINISTRATION SITE CONDITIONS	0	GENERAL DISORDERS AND ADMINISTRATION SITE CONDITIONS	0	MILD	N		PROBABLE	RECOVERED/RESOLVED	N	N	N	N	N	N	N	TREATMENT	1/22/2013	12/25/2012	1/16/2013	113	85	107
CDISCPILOT01	AE	01-701-1341	2	E10	APPLICATION SITE ERYTHEMA	APPLICATION SITE REDNESS	0	APPLICATION SITE ERYTHEMA	0	HLT_0617	0	HLGT_0152	0	GENERAL DISORDERS AND ADMINISTRATION SITE CONDITIONS	0	GENERAL DISORDERS AND ADMINISTRATION SITE CONDITIONS	0	MODERATE	N		PROBABLE	NOT RECOVERED/NOT RESOLVED	N	N	N	N	N	N	N	TREATMENT	2/7/2013	1/19/2013		34	15	0
CDISCPILOT01	AE	01-701-1341	4	E12	APPLICATION SITE ERYTHEMA	APPLICATION SITE REDNESS	0	APPLICATION SITE ERYTHEMA	0	HLT_0617	0	HLGT_0152	0	GENERAL DISORDERS AND ADMINISTRATION SITE CONDITIONS	0	GENERAL DISORDERS AND ADMINISTRATION SITE CONDITIONS	0	MODERATE	N		PROBABLE	NOT RECOVERED/NOT RESOLVED	N	N	N	N	N	N	N	TREATMENT	2/7/2013	1/26/2013		34	22	0
CDISCPILOT01	AE	01-701-1341	5	E13	APPLICATION SITE IRRITATION	APPLICATION SITE BURNING	0	APPLICATION SITE IRRITATION	0	HLT_0061	0	HLGT_0346	0	GENERAL DISORDERS AND ADMINISTRATION SITE CONDITIONS	0	GENERAL DISORDERS AND ADMINISTRATION SITE CONDITIONS	0	MODERATE	N		PROBABLE	RECOVERED/RESOLVED	N	N	N	N	N	N	N	TREATMENT	2/7/2013	1/26/2013	1/30/2013	34	22	26
CDISCPILOT01	AE	01-701-1341	1	E09	APPLICATION SITE PRURITUS	APPLICATION SITE ITCHING	0	APPLICATION SITE PRURITUS	0	HLT_0317	0	HLGT_0338	0	GENERAL DISORDERS AND ADMINISTRATION SITE CONDITIONS	0	GENERAL DISORDERS AND ADMINISTRATION SITE CONDITIONS	0	MODERATE	N		PROBABLE	NOT RECOVERED/NOT RESOLVED	N	N	N	N	N	N	N	TREATMENT	2/7/2013	1/19/2013		34	15	0
CDISCPILOT01	AE	01-701-1341	3	E11	APPLICATION SITE PRURITUS	APPLICATION SITE ITCHING	0	APPLICATION SITE PRURITUS	0	HLT_0317	0	HLGT_0338	0	GENERAL DISORDERS AND ADMINISTRATION SITE CONDITIONS	0	GENERAL DISORDERS AND ADMINISTRATION SITE CONDITIONS	0	MODERATE	N		PROBABLE	RECOVERED/RESOLVED	N	N	N	N	N	N	N	TREATMENT	2/7/2013	1/26/2013	1/30/2013	34	22	26
CDISCPILOT01	AE	01-701-1360	1	E08	APPLICATION SITE ERYTHEMA	APPLICATION SITE ERYTHEMA	0	APPLICATION SITE ERYTHEMA	0	HLT_0617	0	HLGT_0152	0	GENERAL DISORDERS AND ADMINISTRATION SITE CONDITIONS	0	GENERAL DISORDERS AND ADMINISTRATION SITE CONDITIONS	0	MODERATE	N		PROBABLE	NOT RECOVERED/NOT RESOLVED	N	N	N	N	N	N	N	TREATMENT	8/14/2013	8/2/2013		15	3	0
CDISCPILOT01	AE	01-701-1360	2	E09	APPLICATION SITE PRURITUS	APPLICATION SITE ITCHING	0	APPLICATION SITE PRURITUS	0	HLT_0317	0	HLGT_0338	0	GENERAL DISORDERS AND ADMINISTRATION SITE CONDITIONS	0	GENERAL DISORDERS AND ADMINISTRATION SITE CONDITIONS	0	MODERATE	N		PROBABLE	NOT RECOVERED/NOT RESOLVED	N	N	N	N	N	N	N	TREATMENT	8/14/2013	8/2/2013		15	3	0
CDISCPILOT01	AE	01-701-1360	3	E10	APPLICATION SITE VESICLES	APPLICATION SITE BLISTER	0	APPLICATION SITE VESICLES	0	HLT_0180	0	HLGT_0576	0	GENERAL DISORDERS AND ADMINISTRATION SITE CONDITIONS	0	GENERAL DISORDERS AND ADMINISTRATION SITE CONDITIONS	0	MODERATE	N		PROBABLE	NOT RECOVERED/NOT RESOLVED	N	N	N	N	N	N	N	TREATMENT	8/14/2013	8/5/2013		15	6	0
CDISCPILOT01	AE	01-701-1363	3	E11	APPLICATION SITE PRURITUS	APPLICATION SITE ITCHING	0	APPLICATION SITE PRURITUS	0	HLT_0317	0	HLGT_0338	0	GENERAL DISORDERS AND ADMINISTRATION SITE CONDITIONS	0	GENERAL DISORDERS AND ADMINISTRATION SITE CONDITIONS	0	MILD	N		PROBABLE	NOT RECOVERED/NOT RESOLVED	N	N	N	N	N	N	N	TREATMENT	7/24/2013	7/16/2013		56	48	0
CDISCPILOT01	AE	01-701-1363	6	E13	BACK PAIN	BACKACHE	0	BACK PAIN	0	HLT_0115	0	HLGT_0508	0	MUSCULOSKELETAL AND CONNECTIVE TISSUE DISORDERS	0	MUSCULOSKELETAL AND CONNECTIVE TISSUE DISORDERS	0	MILD	N		NONE	RECOVERED/RESOLVED	N	N	N	N	N	N	N	TREATMENT	11/13/2013	10/13/2013	10/15/2013	168	137	139
CDISCPILOT01	AE	01-701-1363	2	E03	HEADACHE	HEADACHE	0	HEADACHE	0	HLT_0064	0	HLGT_0344	0	NERVOUS SYSTEM DISORDERS	0	NERVOUS SYSTEM DISORDERS	0	MODERATE	N		POSSIBLE	NOT RECOVERED/NOT RESOLVED	N	N	N	N	N	N	N	SCREENING	7/24/2013	1986		56	0	0
CDISCPILOT01	AE	01-701-1363	4	E03	HEADACHE	HEADACHE	0	HEADACHE	0	HLT_0064	0	HLGT_0344	0	NERVOUS SYSTEM DISORDERS	0	NERVOUS SYSTEM DISORDERS	0	MILD	N		POSSIBLE	NOT RECOVERED/NOT RESOLVED	N	N	N	N	N	N	N	SCREENING	10/14/2013	1986		138	0	0
CDISCPILOT01	AE	01-701-1363	1	E09	NAUSEA	NAUSEA	0	NAUSEA	0	HLT_0742	0	HLGT_0326	0	GASTROINTESTINAL DISORDERS	0	GASTROINTESTINAL DISORDERS	0	MILD	N		REMOTE	RECOVERED/RESOLVED	N	N	N	N	N	N	N	TREATMENT	6/25/2013	6/14/2013	6/15/2013	27	16	17
CDISCPILOT01	AE	01-701-1383	3	E06	APPLICATION SITE ERYTHEMA	APPLICATION SITE ERYTHEMA	0	APPLICATION SITE ERYTHEMA	0	HLT_0617	0	HLGT_0152	0	GENERAL DISORDERS AND ADMINISTRATION SITE CONDITIONS	0	GENERAL DISORDERS AND ADMINISTRATION SITE CONDITIONS	0	MILD	N		POSSIBLE	RECOVERED/RESOLVED	N	N	N	N	N	N	N	TREATMENT	4/2/2013	3/23/2013	3/26/2013	58	48	51
CDISCPILOT01	AE	01-701-1383	5	E08	APPLICATION SITE ERYTHEMA	APPLICATION SITE ERYTHEMA	0	APPLICATION SITE ERYTHEMA	0	HLT_0617	0	HLGT_0152	0	GENERAL DISORDERS AND ADMINISTRATION SITE CONDITIONS	0	GENERAL DISORDERS AND ADMINISTRATION SITE CONDITIONS	0	MILD	N		POSSIBLE	NOT RECOVERED/NOT RESOLVED	N	N	N	N	N	N	N	TREATMENT	4/30/2013	4/12/2013		86	68	0
CDISCPILOT01	AE	01-701-1383	6	E09	APPLICATION SITE IRRITATION	APPLICATION SITE BURNING	0	APPLICATION SITE IRRITATION	0	HLT_0061	0	HLGT_0346	0	GENERAL DISORDERS AND ADMINISTRATION SITE CONDITIONS	0	GENERAL DISORDERS AND ADMINISTRATION SITE CONDITIONS	0	MILD	N		POSSIBLE	NOT RECOVERED/NOT RESOLVED	N	N	N	N	N	N	N	TREATMENT	4/30/2013	4/12/2013		86	68	0
CDISCPILOT01	AE	01-701-1383	8	E09	APPLICATION SITE IRRITATION	APPLICATION SITE BURNING	0	APPLICATION SITE IRRITATION	0	HLT_0061	0	HLGT_0346	0	GENERAL DISORDERS AND ADMINISTRATION SITE CONDITIONS	0	GENERAL DISORDERS AND ADMINISTRATION SITE CONDITIONS	0	MODERATE	N		POSSIBLE	NOT RECOVERED/NOT RESOLVED	N	N	N	N	N	N	N	TREATMENT	5/30/2013	4/12/2013		116	68	0
CDISCPILOT01	AE	01-701-1383	2	E05	APPLICATION SITE PAIN	APPLICATION SITE PAIN	0	APPLICATION SITE PAIN	0	HLT_0342	0	HLGT_0085	0	GENERAL DISORDERS AND ADMINISTRATION SITE CONDITIONS	0	GENERAL DISORDERS AND ADMINISTRATION SITE CONDITIONS	0	MILD	N		PROBABLE	RECOVERED/RESOLVED	N	N	N	N	N	N	N	TREATMENT	2/19/2013	2/7/2013	2/7/2013	16	4	4
CDISCPILOT01	AE	01-701-1383	1	E04	APPLICATION SITE PRURITUS	APPLICATION SITE ITCHING	0	APPLICATION SITE PRURITUS	0	HLT_0317	0	HLGT_0338	0	GENERAL DISORDERS AND ADMINISTRATION SITE CONDITIONS	0	GENERAL DISORDERS AND ADMINISTRATION SITE CONDITIONS	0	MILD	N		PROBABLE	RECOVERED/RESOLVED	N	N	N	N	N	N	N	TREATMENT	2/19/2013	2/7/2013	2/7/2013	16	4	4
CDISCPILOT01	AE	01-701-1383	4	E07	APPLICATION SITE PRURITUS	APPLICATION SITE ITCHING	0	APPLICATION SITE PRURITUS	0	HLT_0317	0	HLGT_0338	0	GENERAL DISORDERS AND ADMINISTRATION SITE CONDITIONS	0	GENERAL DISORDERS AND ADMINISTRATION SITE CONDITIONS	0	MILD	N		POSSIBLE	NOT RECOVERED/NOT RESOLVED	N	N	N	N	N	N	N	TREATMENT	4/2/2013	3/23/2013		58	48	0
CDISCPILOT01	AE	01-701-1383	7	E07	APPLICATION SITE PRURITUS	APPLICATION SITE ITCHING	0	APPLICATION SITE PRURITUS	0	HLT_0317	0	HLGT_0338	0	GENERAL DISORDERS AND ADMINISTRATION SITE CONDITIONS	0	GENERAL DISORDERS AND ADMINISTRATION SITE CONDITIONS	0	MODERATE	N		POSSIBLE	NOT RECOVERED/NOT RESOLVED	N	N	N	N	N	N	N	TREATMENT	5/30/2013	3/23/2013		116	48	0
CDISCPILOT01	AE	01-701-1383	9	E10	APPLICATION SITE VESICLES	APPLICATION SITE BLISTER	0	APPLICATION SITE VESICLES	0	HLT_0180	0	HLGT_0576	0	GENERAL DISORDERS AND ADMINISTRATION SITE CONDITIONS	0	GENERAL DISORDERS AND ADMINISTRATION SITE CONDITIONS	0	MILD	N		POSSIBLE	RECOVERED/RESOLVED	N	N	N	N	N	N	N	TREATMENT	5/30/2013	5/7/2013	5/24/2013	116	93	110
CDISCPILOT01	AE	01-701-1383	10	E11	CHEST DISCOMFORT	CHEST PRESSURE	0	CHEST DISCOMFORT	0	HLT_0593	0	HLGT_0441	0	GENERAL DISORDERS AND ADMINISTRATION SITE CONDITIONS	0	GENERAL DISORDERS AND ADMINISTRATION SITE CONDITIONS	0	MILD	N		NONE	RECOVERED/RESOLVED	N	N	N	N	N	N	N	TREATMENT	6/25/2013	6/24/2013	6/24/2013	142	141	141
CDISCPILOT01	AE	01-701-1383	12	E13	COUGH	COUGH	0	COUGH	0	HLT_0701	0	HLGT_0280	0	"RESPIRATORY, THORACIC AND MEDIASTINAL DISORDERS"	0	"RESPIRATORY, THORACIC AND MEDIASTINAL DISORDERS"	0	MODERATE	N		NONE	RECOVERED/RESOLVED	N	N	N	N	N	N	N	TREATMENT	7/30/2013	7/17/2013	7/26/2013	177	164	173
CDISCPILOT01	AE	01-701-1383	11	E12	HEADACHE	FULLNESS HEAD	0	HEADACHE	0	HLT_0064	0	HLGT_0344	0	NERVOUS SYSTEM DISORDERS	0	NERVOUS SYSTEM DISORDERS	0	MILD	N		NONE	RECOVERED/RESOLVED	N	N	N	N	N	N	N	TREATMENT	6/25/2013	6/24/2013	6/24/2013	142	141	141
CDISCPILOT01	AE	01-701-1387	1	E08	DIARRHOEA	DIARRHEA	0	DIARRHOEA	0	HLT_0148	0	HLGT_0588	0	GASTROINTESTINAL DISORDERS	0	GASTROINTESTINAL DISORDERS	0	MILD	N		REMOTE	RECOVERED/RESOLVED	N	N	N	N	N	N	N	TREATMENT	3/25/2014	3/18/2014	3/18/2014	14	7	7
CDISCPILOT01	AE	01-701-1387	2	E09	HYPERHIDROSIS	SWEATING	0	HYPERHIDROSIS	0	HLT_0587	0	HLGT_0005	0	SKIN AND SUBCUTANEOUS TISSUE DISORDERS	0	SKIN AND SUBCUTANEOUS TISSUE DISORDERS	0	MILD	N		REMOTE	RECOVERED/RESOLVED	N	N	N	N	N	N	N	TREATMENT	3/25/2014	3/18/2014	3/18/2014	14	7	7
CDISCPILOT01	AE	01-701-1392	2	E04	UPPER RESPIRATORY TRACT INFECTION	UPPER RESPIRATORY INFECTION	0	UPPER RESPIRATORY TRACT INFECTION	0	HLT_0520	0	HLGT_0489	0	INFECTIONS AND INFESTATIONS	0	INFECTIONS AND INFESTATIONS	0	MILD	N		REMOTE	RECOVERED/RESOLVED	N	N	N	N	N	N	N	TREATMENT	4/15/2013	3/16/2013	3/21/2013	170	140	145
CDISCPILOT01	AE	01-701-1415	6	E12	DIARRHOEA	DIARRHEA	0	DIARRHOEA	0	HLT_0148	0	HLGT_0588	0	GASTROINTESTINAL DISORDERS	0	GASTROINTESTINAL DISORDERS	0	MILD	N		NONE	RECOVERED/RESOLVED	N	N	N	N	N	N	N	TREATMENT	3/10/2014	3/9/2014	3/9/2014	169	168	168
CDISCPILOT01	AE	01-701-1415	3	E10	MICTURITION URGENCY	URINARY URGENCY	0	MICTURITION URGENCY	0	HLT_0294	0	HLGT_0483	0	RENAL AND URINARY DISORDERS	0	RENAL AND URINARY DISORDERS	0	MILD	N		NONE	NOT RECOVERED/NOT RESOLVED	N	N	N	N	N	N	N	TREATMENT	12/21/2013	12/2/2013		90	71	0
CDISCPILOT01	AE	01-701-1415	2	E09	UPPER RESPIRATORY TRACT INFECTION	UPPER RESPIRATORY INFECTION	0	UPPER RESPIRATORY TRACT INFECTION	0	HLT_0520	0	HLGT_0489	0	INFECTIONS AND INFESTATIONS	0	INFECTIONS AND INFESTATIONS	0	MILD	N		NONE	RECOVERED/RESOLVED	N	N	N	N	N	N	N	TREATMENT	11/21/2013	10/21/2013	11/4/2013	60	29	43
CDISCPILOT01	AE	01-701-1415	5	E11	UPPER RESPIRATORY TRACT INFECTION	UPPER RESPIRATORY INFECTION	0	UPPER RESPIRATORY TRACT INFECTION	0	HLT_0520	0	HLGT_0489	0	INFECTIONS AND INFESTATIONS	0	INFECTIONS AND INFESTATIONS	0	MILD	N		REMOTE	RECOVERED/RESOLVED	N	N	N	N	N	N	N	TREATMENT	3/10/2014	1/21/2014	2/10/2014	169	121	141
CDISCPILOT01	AE	01-701-1442	1	E03	APPLICATION SITE PRURITUS	APPLICATION SITE ITCHING	0	APPLICATION SITE PRURITUS	0	HLT_0317	0	HLGT_0338	0	GENERAL DISORDERS AND ADMINISTRATION SITE CONDITIONS	0	GENERAL DISORDERS AND ADMINISTRATION SITE CONDITIONS	0	MILD	N		PROBABLE	NOT RECOVERED/NOT RESOLVED	N	N	N	N	N	N	N	TREATMENT	1/18/2014	1/10/2014		85	77	0
CDISCPILOT01	AE	01-701-1444	1	E11	APPLICATION SITE ERYTHEMA	APPLICATION SITE ERYTHEMA	0	APPLICATION SITE ERYTHEMA	0	HLT_0617	0	HLGT_0152	0	GENERAL DISORDERS AND ADMINISTRATION SITE CONDITIONS	0	GENERAL DISORDERS AND ADMINISTRATION SITE CONDITIONS	0	MILD	N		POSSIBLE	NOT RECOVERED/NOT RESOLVED	N	N	N	N	N	N	N	TREATMENT	1/31/2013	1/19/2013		27	15	0
CDISCPILOT01	AE	01-701-1444	4	E11	APPLICATION SITE ERYTHEMA	APPLICATION SITE ERYTHEMA	0	APPLICATION SITE ERYTHEMA	0	HLT_0617	0	HLGT_0152	0	GENERAL DISORDERS AND ADMINISTRATION SITE CONDITIONS	0	GENERAL DISORDERS AND ADMINISTRATION SITE CONDITIONS	0	MODERATE	N		POSSIBLE	NOT RECOVERED/NOT RESOLVED	N	N	N	N	N	N	N	TREATMENT	2/13/2013	1/19/2013		40	15	0
CDISCPILOT01	AE	01-701-1444	6	E15	APPLICATION SITE IRRITATION	APPLICATION SITE BURNING	0	APPLICATION SITE IRRITATION	0	HLT_0061	0	HLGT_0346	0	GENERAL DISORDERS AND ADMINISTRATION SITE CONDITIONS	0	GENERAL DISORDERS AND ADMINISTRATION SITE CONDITIONS	0	MODERATE	N		PROBABLE	NOT RECOVERED/NOT RESOLVED	N	N	N	N	N	N	N	TREATMENT	2/13/2013	2/4/2013		40	31	0
CDISCPILOT01	AE	01-701-1444	2	E12	APPLICATION SITE PRURITUS	APPLICATION SITE ITCHING	0	APPLICATION SITE PRURITUS	0	HLT_0317	0	HLGT_0338	0	GENERAL DISORDERS AND ADMINISTRATION SITE CONDITIONS	0	GENERAL DISORDERS AND ADMINISTRATION SITE CONDITIONS	0	MILD	N		PROBABLE	NOT RECOVERED/NOT RESOLVED	N	N	N	N	N	N	N	TREATMENT	1/31/2013	1/19/2013		27	15	0
CDISCPILOT01	AE	01-701-1444	5	E12	APPLICATION SITE PRURITUS	APPLICATION SITE ITCHING	0	APPLICATION SITE PRURITUS	0	HLT_0317	0	HLGT_0338	0	GENERAL DISORDERS AND ADMINISTRATION SITE CONDITIONS	0	GENERAL DISORDERS AND ADMINISTRATION SITE CONDITIONS	0	MODERATE	N		PROBABLE	NOT RECOVERED/NOT RESOLVED	N	N	N	N	N	N	N	TREATMENT	2/13/2013	1/19/2013		40	15	0
CDISCPILOT01	AE	01-701-1444	7	E16	APPLICATION SITE VESICLES	APPLICATION SITE BLISTER	0	APPLICATION SITE VESICLES	0	HLT_0180	0	HLGT_0576	0	GENERAL DISORDERS AND ADMINISTRATION SITE CONDITIONS	0	GENERAL DISORDERS AND ADMINISTRATION SITE CONDITIONS	0	MODERATE	N		PROBABLE	NOT RECOVERED/NOT RESOLVED	N	N	N	N	N	N	N	TREATMENT	2/13/2013	2/4/2013		40	31	0
CDISCPILOT01	AE	01-701-1444	8	E14	PARAESTHESIA	TINGLING	0	PARAESTHESIA	0	HLT_0481	0	HLGT_0534	0	NERVOUS SYSTEM DISORDERS	0	NERVOUS SYSTEM DISORDERS	0	MILD	N		NONE	RECOVERED/RESOLVED	N	N	N	N	N	N	N	TREATMENT	2/13/2013	2/8/2013	2/8/2013	40	35	35
CDISCPILOT01	AE	01-701-1444	3	E13	SALIVARY HYPERSECRETION	HYPERSALIVATION	0	SALIVARY HYPERSECRETION	0	HLT_0374	0	HLGT_0488	0	GASTROINTESTINAL DISORDERS	0	GASTROINTESTINAL DISORDERS	0	MILD	N		POSSIBLE	NOT RECOVERED/NOT RESOLVED	N	N	N	N	N	N	N	TREATMENT	1/31/2013	1/19/2013		27	15	0
CDISCPILOT01	AE	01-702-1082	9	E07	APPLICATION SITE IRRITATION	APPLICATION SITE IRRITATION	0	APPLICATION SITE IRRITATION	0	HLT_0061	0	HLGT_0346	0	GENERAL DISORDERS AND ADMINISTRATION SITE CONDITIONS	0	GENERAL DISORDERS AND ADMINISTRATION SITE CONDITIONS	0	MILD	N		PROBABLE	RECOVERED/RESOLVED	N	N	N	N	N	N	N	TREATMENT	9/28/2013	9/9/2013	9/24/2013	65	46	61
CDISCPILOT01	AE	01-702-1082	6	E03	NEUTROPHIL COUNT INCREASED	NEUTROPHIL COUNT INCREASED	0	NEUTROPHIL COUNT INCREASED	0	HLT_0326	0	HLGT_0625	0	INVESTIGATIONS	0	INVESTIGATIONS	0	MILD	N		NONE	RECOVERED/RESOLVED	N	N	N	N	N	N	N	SCREENING	8/8/2013	7/7/2013	7/26/2013	14	-19	1
CDISCPILOT01	AE	01-702-1082	8	E06	RECTAL HAEMORRHAGE	RECTAL BLEEDING	0	RECTAL HAEMORRHAGE	0	HLT_0353	0	HLGT_0755	0	GASTROINTESTINAL DISORDERS	0	GASTROINTESTINAL DISORDERS	0	MILD	N		NONE	RECOVERED/RESOLVED	N	N	N	N	N	N	N	TREATMENT	9/28/2013	9/2/2013	9/6/2013	65	39	43
CDISCPILOT01	AE	01-702-1082	10	E08	SKIN IRRITATION	SKIN IRRITATION	0	SKIN IRRITATION	0	HLT_0583	0	HLGT_0384	0	SKIN AND SUBCUTANEOUS TISSUE DISORDERS	0	SKIN AND SUBCUTANEOUS TISSUE DISORDERS	0	MODERATE	N		PROBABLE	RECOVERED/RESOLVED	N	N	N	N	N	N	N	TREATMENT	11/17/2013	10/12/2013	10/31/2013	115	79	98
CDISCPILOT01	AE	01-702-1082	4	E04	URINE ANALYSIS ABNORMAL	URINE ANALYSIS ABNORMAL	0	URINE ANALYSIS ABNORMAL	0	HLT_0783	0	HLGT_0295	0	INVESTIGATIONS	0	INVESTIGATIONS	0	MILD	N		NONE	RECOVERED/RESOLVED	N	N	N	N	N	N	N	SCREENING	7/26/2013	7/7/2013	7/24/2013	1	-19	-2
CDISCPILOT01	AE	01-702-1082	5	E02	WHITE BLOOD CELL COUNT INCREASED	WBC INCREASED	0	WHITE BLOOD CELL COUNT INCREASED	0	HLT_0417	0	HLGT_0465	0	INVESTIGATIONS	0	INVESTIGATIONS	0	MILD	N		NONE	RECOVERED/RESOLVED	N	N	N	N	N	N	N	SCREENING	8/8/2013	7/7/2013	7/26/2013	14	-19	1
CDISCPILOT01	AE	01-703-1042	1	E04	DIARRHOEA	DIARRHEA	0	DIARRHOEA	0	HLT_0148	0	HLGT_0588	0	GASTROINTESTINAL DISORDERS	0	GASTROINTESTINAL DISORDERS	0	MILD	N		POSSIBLE	RECOVERED/RESOLVED	N	N	N	N	N	N	N	TREATMENT	3/14/2013	3/4/2013	3/5/2013	13	3	4
CDISCPILOT01	AE	01-703-1042	2	E05	INSOMNIA	INSOMNIA	0	INSOMNIA	0	HLT_0297	0	HLGT_0469	0	PSYCHIATRIC DISORDERS	0	PSYCHIATRIC DISORDERS	0	MILD	N		REMOTE	RECOVERED/RESOLVED	N	N	N	N	N	N	N	TREATMENT	3/14/2013	3/5/2013	3/6/2013	13	4	5
CDISCPILOT01	AE	01-703-1076	5	E09	APPLICATION SITE DERMATITIS	APPLICATION SITE RASH	0	APPLICATION SITE DERMATITIS	0	HLT_0343	0	HLGT_0241	0	GENERAL DISORDERS AND ADMINISTRATION SITE CONDITIONS	0	GENERAL DISORDERS AND ADMINISTRATION SITE CONDITIONS	0	MILD	N		PROBABLE	NOT RECOVERED/NOT RESOLVED	N	N	N	N	N	N	N	TREATMENT	12/4/2013	11/23/2013		41	30	0
CDISCPILOT01	AE	01-703-1076	4	E08	APPLICATION SITE PRURITUS	APPLICATION SITE ITCHING	0	APPLICATION SITE PRURITUS	0	HLT_0317	0	HLGT_0338	0	GENERAL DISORDERS AND ADMINISTRATION SITE CONDITIONS	0	GENERAL DISORDERS AND ADMINISTRATION SITE CONDITIONS	0	MILD	N		PROBABLE	NOT RECOVERED/NOT RESOLVED	N	N	N	N	N	N	N	TREATMENT	12/4/2013	11/23/2013		41	30	0
CDISCPILOT01	AE	01-703-1076	7	E08	APPLICATION SITE PRURITUS	APPLICATION SITE ITCHING	0	APPLICATION SITE PRURITUS	0	HLT_0317	0	HLGT_0338	0	GENERAL DISORDERS AND ADMINISTRATION SITE CONDITIONS	0	GENERAL DISORDERS AND ADMINISTRATION SITE CONDITIONS	0	MODERATE	N		PROBABLE	NOT RECOVERED/NOT RESOLVED	N	N	N	N	N	N	N	TREATMENT	12/17/2013	11/23/2013		54	30	0
CDISCPILOT01	AE	01-703-1076	2	E01	BENIGN PROSTATIC HYPERPLASIA	BENIGN PROSTATIC HYPERTROPHY	0	BENIGN PROSTATIC HYPERPLASIA	0	HLT_0215	0	HLGT_0568	0	REPRODUCTIVE SYSTEM AND BREAST DISORDERS	0	REPRODUCTIVE SYSTEM AND BREAST DISORDERS	0	MODERATE	N		NONE	NOT RECOVERED/NOT RESOLVED	N	N	N	N	N	N	N	TREATMENT	11/20/2013	11/20/2013		27	27	0
CDISCPILOT01	AE	01-703-1076	1	E02	BIOPSY PROSTATE	BIOPSY OF PROSTATE	0	BIOPSY PROSTATE	0	HLT_0553	0	HLGT_0725	0	INVESTIGATIONS	0	INVESTIGATIONS	0	MODERATE	N		NONE	RECOVERED/RESOLVED	N	N	N	N	N	N	N	TREATMENT	11/20/2013	11/16/2013	11/16/2013	27	23	23
CDISCPILOT01	AE	01-703-1076	3	E05	HYPERCHOLESTEROLAEMIA	HYPERCHOLESTEROLEMIA	0	HYPERCHOLESTEROLAEMIA	0	HLT_0025	0	HLGT_0703	0	METABOLISM AND NUTRITION DISORDERS	0	METABOLISM AND NUTRITION DISORDERS	0	MODERATE	N		NONE	NOT RECOVERED/NOT RESOLVED	N	N	N	N	N	N	N	SCREENING	12/4/2013	2007		41	0	0
CDISCPILOT01	AE	01-703-1076	6	E07	HYPERHIDROSIS	SWEATING	0	HYPERHIDROSIS	0	HLT_0587	0	HLGT_0005	0	SKIN AND SUBCUTANEOUS TISSUE DISORDERS	0	SKIN AND SUBCUTANEOUS TISSUE DISORDERS	0	MILD	N		POSSIBLE	NOT RECOVERED/NOT RESOLVED	N	N	N	N	N	N	N	TREATMENT	12/4/2013	11/25/2013		41	32	0
CDISCPILOT01	AE	01-703-1086	2	E01	APPLICATION SITE IRRITATION	APPLICATION SITE IRRITATION	0	APPLICATION SITE IRRITATION	0	HLT_0061	0	HLGT_0346	0	GENERAL DISORDERS AND ADMINISTRATION SITE CONDITIONS	0	GENERAL DISORDERS AND ADMINISTRATION SITE CONDITIONS	0	MODERATE	N		PROBABLE	NOT RECOVERED/NOT RESOLVED	N	N	N	N	N	N	N	TREATMENT	9/30/2012	9/13/2012	1/2/2013	29	12	123
CDISCPILOT01	AE	01-703-1086	3	E01	APPLICATION SITE IRRITATION	APPLICATION SITE IRRITATION	0	APPLICATION SITE IRRITATION	0	HLT_0061	0	HLGT_0346	0	GENERAL DISORDERS AND ADMINISTRATION SITE CONDITIONS	0	GENERAL DISORDERS AND ADMINISTRATION SITE CONDITIONS	0	SEVERE	N		PROBABLE	NOT RECOVERED/NOT RESOLVED	N	N	N	N	N	N	N	TREATMENT	10/13/2012	9/13/2012	1/2/2013	42	12	123
CDISCPILOT01	AE	01-703-1086	6	E01	APPLICATION SITE IRRITATION	APPLICATION SITE IRRITATION	0	APPLICATION SITE IRRITATION	0	HLT_0061	0	HLGT_0346	0	GENERAL DISORDERS AND ADMINISTRATION SITE CONDITIONS	0	GENERAL DISORDERS AND ADMINISTRATION SITE CONDITIONS	0	MILD	N		PROBABLE	RECOVERED/RESOLVED	N	N	N	N	N	N	N	TREATMENT	3/26/2013	9/13/2012	1/2/2013	206	12	123
CDISCPILOT01	AE	01-703-1086	5	E02	CHILLS	CHILLS	0	CHILLS	0	HLT_0586	0	HLGT_0161	0	GENERAL DISORDERS AND ADMINISTRATION SITE CONDITIONS	0	GENERAL DISORDERS AND ADMINISTRATION SITE CONDITIONS	0	MILD	N		POSSIBLE	RECOVERED/RESOLVED	N	N	N	N	N	N	N	TREATMENT	10/27/2012	10/9/2012	10/15/2012	56	38	44
CDISCPILOT01	AE	01-703-1100	1	E04	APPLICATION SITE IRRITATION	APPLICATION SITE IRRITATION	0	APPLICATION SITE IRRITATION	0	HLT_0061	0	HLGT_0346	0	GENERAL DISORDERS AND ADMINISTRATION SITE CONDITIONS	0	GENERAL DISORDERS AND ADMINISTRATION SITE CONDITIONS	0	MODERATE	N		PROBABLE	NOT RECOVERED/NOT RESOLVED	N	N	N	N	N	N	N	TREATMENT	4/12/2013	4/5/2013	4/16/2013	31	24	35
CDISCPILOT01	AE	01-703-1100	3	E04	APPLICATION SITE IRRITATION	APPLICATION SITE IRRITATION	0	APPLICATION SITE IRRITATION	0	HLT_0061	0	HLGT_0346	0	GENERAL DISORDERS AND ADMINISTRATION SITE CONDITIONS	0	GENERAL DISORDERS AND ADMINISTRATION SITE CONDITIONS	0	MILD	N		PROBABLE	RECOVERED/RESOLVED	N	N	N	N	N	N	N	TREATMENT	4/24/2013	4/5/2013	4/16/2013	43	24	35
CDISCPILOT01	AE	01-703-1100	4	E06	CATARACT OPERATION	CATARACT EXTRACTION	0	CATARACT OPERATION	0	HLT_0432	0	HLGT_0058	0	SURGICAL AND MEDICAL PROCEDURES	0	SURGICAL AND MEDICAL PROCEDURES	0	MODERATE	N		NONE	RECOVERED/RESOLVED	N	N	N	N	N	N	N	TREATMENT	5/8/2013	4/25/2013	4/25/2013	57	44	44
CDISCPILOT01	AE	01-703-1100	8	E07	OEDEMA PERIPHERAL	LEG EDEMA	0	OEDEMA PERIPHERAL	0	HLT_0661	0	HLGT_0137	0	GENERAL DISORDERS AND ADMINISTRATION SITE CONDITIONS	0	GENERAL DISORDERS AND ADMINISTRATION SITE CONDITIONS	0	MODERATE	N		REMOTE	RECOVERED/RESOLVED	N	N	N	N	N	N	N	SCREENING	9/14/2013	2/28/2013	9/14/2013	186	-13	186
CDISCPILOT01	AE	01-703-1100	9	E09	OEDEMA PERIPHERAL	LEG EDEMA	0	OEDEMA PERIPHERAL	0	HLT_0661	0	HLGT_0137	0	GENERAL DISORDERS AND ADMINISTRATION SITE CONDITIONS	0	GENERAL DISORDERS AND ADMINISTRATION SITE CONDITIONS	0	MILD	N		REMOTE	RECOVERED/RESOLVED	N	N	N	N	N	N	N	TREATMENT	9/14/2013	7/17/2013	9/14/2013	186	127	186
CDISCPILOT01	AE	01-703-1100	5	E08	UPPER RESPIRATORY TRACT INFECTION	UPPER RESPIRATORY INFECTION	0	UPPER RESPIRATORY TRACT INFECTION	0	HLT_0520	0	HLGT_0489	0	INFECTIONS AND INFESTATIONS	0	INFECTIONS AND INFESTATIONS	0	MODERATE	N		REMOTE	RECOVERED/RESOLVED	N	N	N	N	N	N	N	TREATMENT	6/5/2013	5/27/2013	6/3/2013	85	76	83
CDISCPILOT01	AE	01-703-1119	1	E04	APPLICATION SITE IRRITATION	APPLICATION SITE IRRITATION	0	APPLICATION SITE IRRITATION	0	HLT_0061	0	HLGT_0346	0	GENERAL DISORDERS AND ADMINISTRATION SITE CONDITIONS	0	GENERAL DISORDERS AND ADMINISTRATION SITE CONDITIONS	0	MODERATE	N		PROBABLE	NOT RECOVERED/NOT RESOLVED	N	N	N	N	N	N	N	TREATMENT	3/21/2013	3/16/2013		30	25	0
CDISCPILOT01	AE	01-703-1119	2	E04	APPLICATION SITE IRRITATION	APPLICATION SITE IRRITATION	0	APPLICATION SITE IRRITATION	0	HLT_0061	0	HLGT_0346	0	GENERAL DISORDERS AND ADMINISTRATION SITE CONDITIONS	0	GENERAL DISORDERS AND ADMINISTRATION SITE CONDITIONS	0	SEVERE	N		PROBABLE	NOT RECOVERED/NOT RESOLVED	N	N	N	N	N	N	N	TREATMENT	5/17/2013	3/16/2013		87	25	0
CDISCPILOT01	AE	01-703-1119	3	E05	PRURITUS	ITCHING	0	PRURITUS	0	HLT_0778	0	HLGT_0695	0	SKIN AND SUBCUTANEOUS TISSUE DISORDERS	0	SKIN AND SUBCUTANEOUS TISSUE DISORDERS	0	MODERATE	N		PROBABLE	NOT RECOVERED/NOT RESOLVED	N	N	N	N	N	N	N	TREATMENT	5/17/2013	5/4/2013		87	74	0
CDISCPILOT01	AE	01-703-1119	4	E05	PRURITUS	ITCHING	0	PRURITUS	0	HLT_0778	0	HLGT_0695	0	SKIN AND SUBCUTANEOUS TISSUE DISORDERS	0	SKIN AND SUBCUTANEOUS TISSUE DISORDERS	0	SEVERE	N		PROBABLE	NOT RECOVERED/NOT RESOLVED	N	N	N	N	N	N	N	TREATMENT	6/13/2013	5/4/2013		114	74	0
CDISCPILOT01	AE	01-703-1175	1	E01	ATRIOVENTRICULAR BLOCK SECOND DEGREE	HEART BLOCK SECOND DEGREE	0	ATRIOVENTRICULAR BLOCK SECOND DEGREE	0	HLT_0415	0	HLGT_0086	0	CARDIAC DISORDERS	0	CARDIAC DISORDERS	0	SEVERE	N		NONE	NOT RECOVERED/NOT RESOLVED	N	N	N	N	N	N	N	SCREENING	12/18/2013	12/18/2013		-2	-2	0
CDISCPILOT01	AE	01-703-1182	1	E05	APPLICATION SITE ERYTHEMA	APPLICATION SITE REDNESS	0	APPLICATION SITE ERYTHEMA	0	HLT_0617	0	HLGT_0152	0	GENERAL DISORDERS AND ADMINISTRATION SITE CONDITIONS	0	GENERAL DISORDERS AND ADMINISTRATION SITE CONDITIONS	0	MILD	N		POSSIBLE	NOT RECOVERED/NOT RESOLVED	N	N	N	N	N	N	N	TREATMENT	10/31/2013	10/31/2013		15	15	0
CDISCPILOT01	AE	01-703-1182	2	E05	APPLICATION SITE ERYTHEMA	APPLICATION SITE REDNESS	0	APPLICATION SITE ERYTHEMA	0	HLT_0617	0	HLGT_0152	0	GENERAL DISORDERS AND ADMINISTRATION SITE CONDITIONS	0	GENERAL DISORDERS AND ADMINISTRATION SITE CONDITIONS	0	MODERATE	N		POSSIBLE	NOT RECOVERED/NOT RESOLVED	N	N	N	N	N	N	N	TREATMENT	11/28/2013	10/31/2013		43	15	0
CDISCPILOT01	AE	01-703-1182	3	E07	SOMNOLENCE	DROWSINESS	0	SOMNOLENCE	0	HLT_0160	0	HLGT_0254	0	NERVOUS SYSTEM DISORDERS	0	NERVOUS SYSTEM DISORDERS	0	MILD	N		REMOTE	NOT RECOVERED/NOT RESOLVED	N	N	N	N	N	N	N	TREATMENT	11/28/2013	11/22/2013		43	37	0
CDISCPILOT01	AE	01-703-1182	4	E07	SOMNOLENCE	DROWSINESS	0	SOMNOLENCE	0	HLT_0160	0	HLGT_0254	0	NERVOUS SYSTEM DISORDERS	0	NERVOUS SYSTEM DISORDERS	0	MODERATE	N		REMOTE	NOT RECOVERED/NOT RESOLVED	N	N	N	N	N	N	N	TREATMENT	12/12/2013	11/22/2013		57	37	0
CDISCPILOT01	AE	01-703-1210	2	E04	DECREASED APPETITE	DECREASED APPETITE	0	DECREASED APPETITE	0	HLT_0574	0	HLGT_0231	0	METABOLISM AND NUTRITION DISORDERS	0	METABOLISM AND NUTRITION DISORDERS	0	MILD	N		POSSIBLE	NOT RECOVERED/NOT RESOLVED	N	N	N	N	N	N	N	TREATMENT	5/10/2013	5/4/2013		56	50	0
CDISCPILOT01	AE	01-703-1210	3	E04	DECREASED APPETITE	DECREASED APPETITE	0	DECREASED APPETITE	0	HLT_0574	0	HLGT_0231	0	METABOLISM AND NUTRITION DISORDERS	0	METABOLISM AND NUTRITION DISORDERS	0	MODERATE	N		POSSIBLE	NOT RECOVERED/NOT RESOLVED	N	N	N	N	N	N	N	TREATMENT	8/24/2013	5/4/2013		162	50	0
CDISCPILOT01	AE	01-703-1210	1	E01	DISORIENTATION	DISORIENTATION	0	DISORIENTATION	0	HLT_0299	0	HLGT_0307	0	PSYCHIATRIC DISORDERS	0	PSYCHIATRIC DISORDERS	0	MILD	N		REMOTE	NOT RECOVERED/NOT RESOLVED	N	N	N	N	N	N	N	TREATMENT	4/12/2013	4/2/2013		28	18	0
CDISCPILOT01	AE	01-703-1258	6	E08	APPLICATION SITE DERMATITIS	APPLICATION SITE RASH	0	APPLICATION SITE DERMATITIS	0	HLT_0343	0	HLGT_0241	0	GENERAL DISORDERS AND ADMINISTRATION SITE CONDITIONS	0	GENERAL DISORDERS AND ADMINISTRATION SITE CONDITIONS	0	MODERATE	N		PROBABLE	NOT RECOVERED/NOT RESOLVED	N	N	N	N	N	N	N	TREATMENT	9/14/2012	9/4/2012	1/25/2013	57	47	190
CDISCPILOT01	AE	01-703-1258	7	E08	APPLICATION SITE DERMATITIS	APPLICATION SITE RASH	0	APPLICATION SITE DERMATITIS	0	HLT_0343	0	HLGT_0241	0	GENERAL DISORDERS AND ADMINISTRATION SITE CONDITIONS	0	GENERAL DISORDERS AND ADMINISTRATION SITE CONDITIONS	0	MILD	N		PROBABLE	RECOVERED/RESOLVED	N	N	N	N	N	N	N	TREATMENT	1/28/2013	9/4/2012	1/25/2013	193	47	190
CDISCPILOT01	AE	01-703-1258	2	E06	DIZZINESS	DIZZINESS	0	DIZZINESS	0	HLT_0619	0	HLGT_0751	0	NERVOUS SYSTEM DISORDERS	0	NERVOUS SYSTEM DISORDERS	0	MODERATE	N		NONE	NOT RECOVERED/NOT RESOLVED	N	N	N	N	N	N	N	SCREENING	9/4/2012	2001		47	0	0
CDISCPILOT01	AE	01-703-1258	5	E06	DIZZINESS	DIZZINESS	0	DIZZINESS	0	HLT_0619	0	HLGT_0751	0	NERVOUS SYSTEM DISORDERS	0	NERVOUS SYSTEM DISORDERS	0	MILD	N		NONE	NOT RECOVERED/NOT RESOLVED	N	N	N	N	N	N	N	SCREENING	9/14/2012	2001		57	0	0
CDISCPILOT01	AE	01-703-1258	3	E07	UPPER RESPIRATORY TRACT INFECTION	UPPER RESPIRATORY INFECTION	0	UPPER RESPIRATORY TRACT INFECTION	0	HLT_0520	0	HLGT_0489	0	INFECTIONS AND INFESTATIONS	0	INFECTIONS AND INFESTATIONS	0	MILD	N		NONE	RECOVERED/RESOLVED	N	N	N	N	N	N	N	TREATMENT	9/4/2012	8/11/2012	8/19/2012	47	23	31
CDISCPILOT01	AE	01-703-1295	1	E06	ARTHRITIS	ARTHRITIS	0	ARTHRITIS	0	HLT_0019	0	HLGT_0587	0	MUSCULOSKELETAL AND CONNECTIVE TISSUE DISORDERS	0	MUSCULOSKELETAL AND CONNECTIVE TISSUE DISORDERS	0	MODERATE	N		NONE	NOT RECOVERED/NOT RESOLVED	N	N	N	N	N	N	N	TREATMENT	1/1/2014	12/28/2013		42	38	0
CDISCPILOT01	AE	01-703-1299	3	E01	GLAUCOMA	GLAUCOMA	0	GLAUCOMA	0	HLT_0556	0	HLGT_0734	0	EYE DISORDERS	0	EYE DISORDERS	0	MODERATE	N		NONE	NOT RECOVERED/NOT RESOLVED	N	N	N	N	N	N	N	SCREENING	3/1/2013	1992		171	0	0
CDISCPILOT01	AE	01-703-1299	4	E05	HYPOTENSION	HYPOTENSION	0	HYPOTENSION	0	HLT_0761	0	HLGT_0412	0	VASCULAR DISORDERS	0	VASCULAR DISORDERS	0	MILD	N		REMOTE	NOT RECOVERED/NOT RESOLVED	N	N	N	N	N	N	N	TREATMENT	3/1/2013	3/1/2013		171	171	0
CDISCPILOT01	AE	01-703-1299	6	E05	HYPOTENSION	HYPOTENSION	0	HYPOTENSION	0	HLT_0761	0	HLGT_0412	0	VASCULAR DISORDERS	0	VASCULAR DISORDERS	0	MODERATE	N		REMOTE	NOT RECOVERED/NOT RESOLVED	N	N	N	N	N	N	N	TREATMENT	3/13/2013	3/1/2013		183	171	0
CDISCPILOT01	AE	01-703-1299	8	E07	MYOCARDIAL INFARCTION	MYOCARDIAL INFARCTION	0	MYOCARDIAL INFARCTION	0	HLT_0649	0	HLGT_0688	0	CARDIAC DISORDERS	0	CARDIAC DISORDERS	0	MODERATE	N		REMOTE	NOT RECOVERED/NOT RESOLVED	N	N	N	N	N	N	N	TREATMENT	3/13/2013	3/13/2013		183	183	0
CDISCPILOT01	AE	01-703-1299	5	E06	TACHYCARDIA	TACHYCARDIA	0	TACHYCARDIA	0	HLT_0082	0	HLGT_0574	0	CARDIAC DISORDERS	0	CARDIAC DISORDERS	0	MILD	N		REMOTE	NOT RECOVERED/NOT RESOLVED	N	N	N	N	N	N	N	TREATMENT	3/1/2013	3/1/2013		171	171	0
CDISCPILOT01	AE	01-703-1299	7	E06	TACHYCARDIA	TACHYCARDIA	0	TACHYCARDIA	0	HLT_0082	0	HLGT_0574	0	CARDIAC DISORDERS	0	CARDIAC DISORDERS	0	MODERATE	N		REMOTE	NOT RECOVERED/NOT RESOLVED	N	N	N	N	N	N	N	TREATMENT	3/13/2013	3/1/2013		183	171	0
CDISCPILOT01	AE	01-703-1299	2	E02	UPPER RESPIRATORY TRACT INFECTION	UPPER RESPIRATORY INFECTION	0	UPPER RESPIRATORY TRACT INFECTION	0	HLT_0520	0	HLGT_0489	0	INFECTIONS AND INFESTATIONS	0	INFECTIONS AND INFESTATIONS	0	MILD	N		NONE	RECOVERED/RESOLVED	N	N	N	N	N	N	N	TREATMENT	10/10/2012	9/27/2012	10/6/2012	29	16	25
CDISCPILOT01	AE	01-703-1335	2	E01	ATRIOVENTRICULAR BLOCK SECOND DEGREE	AV BLOCK SECOND DEGREE	0	ATRIOVENTRICULAR BLOCK SECOND DEGREE	0	HLT_0415	0	HLGT_0086	0	CARDIAC DISORDERS	0	CARDIAC DISORDERS	0	MILD	N		NONE	RECOVERED/RESOLVED	N	N	N	N	N	N	N	SCREENING	3/31/2014	3/15/2014	3/30/2014	15	-2	14
CDISCPILOT01	AE	01-703-1403	4	E03	CHEST DISCOMFORT	CHEST TIGHTNESS	0	CHEST DISCOMFORT	0	HLT_0593	0	HLGT_0441	0	GENERAL DISORDERS AND ADMINISTRATION SITE CONDITIONS	0	GENERAL DISORDERS AND ADMINISTRATION SITE CONDITIONS	0	MILD	N		PROBABLE	RECOVERED/RESOLVED	N	N	N	N	N	N	N	TREATMENT	12/19/2012	12/15/2012	12/16/2012	8	4	5
CDISCPILOT01	AE	01-703-1403	2	E01	DIARRHOEA	DIARRHEA	0	DIARRHOEA	0	HLT_0148	0	HLGT_0588	0	GASTROINTESTINAL DISORDERS	0	GASTROINTESTINAL DISORDERS	0	MODERATE	N		PROBABLE	RECOVERED/RESOLVED	N	N	N	N	N	N	N	TREATMENT	12/19/2012	12/13/2012	12/14/2012	8	2	3
CDISCPILOT01	AE	01-703-1403	3	E02	VOMITING	VOMITING	0	VOMITING	0	HLT_0016	0	HLGT_0350	0	GASTROINTESTINAL DISORDERS	0	GASTROINTESTINAL DISORDERS	0	MODERATE	N		PROBABLE	RECOVERED/RESOLVED	N	N	N	N	N	N	N	TREATMENT	12/19/2012	12/13/2012	12/14/2012	8	2	3
CDISCPILOT01	AE	01-703-1403	5	E07	WEIGHT DECREASED	WEIGHT LOSS	0	WEIGHT DECREASED	0	HLT_0158	0	HLGT_0778	0	INVESTIGATIONS	0	INVESTIGATIONS	0	MODERATE	N		NONE	RECOVERED/RESOLVED	N	N	N	N	N	N	N	TREATMENT	1/8/2013	12/12/2012	12/19/2012	28	1	8
CDISCPILOT01	AE	01-703-1439	1	E01	APPLICATION SITE IRRITATION	APPLICATION SITE IRRITATION	0	APPLICATION SITE IRRITATION	0	HLT_0061	0	HLGT_0346	0	GENERAL DISORDERS AND ADMINISTRATION SITE CONDITIONS	0	GENERAL DISORDERS AND ADMINISTRATION SITE CONDITIONS	0	MILD	N		PROBABLE	NOT RECOVERED/NOT RESOLVED	N	N	N	N	N	N	N	TREATMENT	5/5/2014	4/24/2014		55	44	0
CDISCPILOT01	AE	01-703-1439	2	E01	APPLICATION SITE IRRITATION	APPLICATION SITE IRRITATION	0	APPLICATION SITE IRRITATION	0	HLT_0061	0	HLGT_0346	0	GENERAL DISORDERS AND ADMINISTRATION SITE CONDITIONS	0	GENERAL DISORDERS AND ADMINISTRATION SITE CONDITIONS	0	MODERATE	N		PROBABLE	NOT RECOVERED/NOT RESOLVED	N	N	N	N	N	N	N	TREATMENT	6/30/2014	4/24/2014		111	44	0
CDISCPILOT01	AE	01-704-1008	1	E03	HYPERHIDROSIS	SWEATING INCREASED	0	HYPERHIDROSIS	0	HLT_0587	0	HLGT_0005	0	SKIN AND SUBCUTANEOUS TISSUE DISORDERS	0	SKIN AND SUBCUTANEOUS TISSUE DISORDERS	0	MILD	N		POSSIBLE	NOT RECOVERED/NOT RESOLVED	N	N	N	N	N	N	N	TREATMENT	2/9/2013	1/30/2013		28	18	0
CDISCPILOT01	AE	01-704-1008	3	E05	SINUS BRADYCARDIA	SINUS BRADYCARDIA	0	SINUS BRADYCARDIA	0	HLT_0644	0	HLGT_0500	0	CARDIAC DISORDERS	0	CARDIAC DISORDERS	0	MODERATE	N		NONE	NOT RECOVERED/NOT RESOLVED	N	N	N	N	N	N	N	TREATMENT	2/25/2013	2/25/2013		44	44	0
CDISCPILOT01	AE	01-704-1008	2	E06	TRANSIENT ISCHAEMIC ATTACK	TRANSIENT ISCHEMIC ATTACKS	0	TRANSIENT ISCHAEMIC ATTACK	0	HLT_0041	0	HLGT_0433	0	NERVOUS SYSTEM DISORDERS	0	NERVOUS SYSTEM DISORDERS	0	SEVERE	N		NONE	RECOVERED/RESOLVED	N	N	N	N	Y	N	N	TREATMENT	2/25/2013	2/21/2013	2/21/2013	44	40	40
CDISCPILOT01	AE	01-704-1009	5	E07	DIZZINESS	DIZZINESS	0	DIZZINESS	0	HLT_0619	0	HLGT_0751	0	NERVOUS SYSTEM DISORDERS	0	NERVOUS SYSTEM DISORDERS	0	MILD	N		REMOTE	NOT RECOVERED/NOT RESOLVED	N	N	N	N	N	N	N	TREATMENT	10/2/2013	9/17/2013		37	22	0
CDISCPILOT01	AE	01-704-1009	1	E09	FATIGUE	FATIGUE	0	FATIGUE	0	HLT_0043	0	HLGT_0181	0	GENERAL DISORDERS AND ADMINISTRATION SITE CONDITIONS	0	GENERAL DISORDERS AND ADMINISTRATION SITE CONDITIONS	0	MILD	N		REMOTE	NOT RECOVERED/NOT RESOLVED	N	N	N	N	N	N	N	TREATMENT	9/14/2013	9/5/2013		19	10	0
CDISCPILOT01	AE	01-704-1009	4	E10	MALAISE	MALAISE	0	MALAISE	0	HLT_0456	0	HLGT_0178	0	GENERAL DISORDERS AND ADMINISTRATION SITE CONDITIONS	0	GENERAL DISORDERS AND ADMINISTRATION SITE CONDITIONS	0	MILD	N		POSSIBLE	RECOVERED/RESOLVED	N	N	N	N	N	N	N	TREATMENT	10/2/2013	9/5/2013	9/27/2013	37	10	32
CDISCPILOT01	AE	01-704-1009	6	E08	NAUSEA	NAUSEA	0	NAUSEA	0	HLT_0742	0	HLGT_0326	0	GASTROINTESTINAL DISORDERS	0	GASTROINTESTINAL DISORDERS	0	MILD	N		POSSIBLE	RECOVERED/RESOLVED	N	N	N	N	N	N	N	TREATMENT	10/2/2013	9/22/2013	9/23/2013	37	27	28
CDISCPILOT01	AE	01-704-1009	3	E03	RASH	RASH	0	RASH	0	HLT_0762	0	HLGT_0198	0	SKIN AND SUBCUTANEOUS TISSUE DISORDERS	0	SKIN AND SUBCUTANEOUS TISSUE DISORDERS	0	MILD	N		POSSIBLE	NOT RECOVERED/NOT RESOLVED	N	N	N	N	N	N	N	TREATMENT	9/14/2013	9/14/2013		19	19	0
CDISCPILOT01	AE	01-704-1010	6	E07	ARTHRALGIA	KNEE PAIN	0	ARTHRALGIA	0	HLT_0375	0	HLGT_0610	0	MUSCULOSKELETAL AND CONNECTIVE TISSUE DISORDERS	0	MUSCULOSKELETAL AND CONNECTIVE TISSUE DISORDERS	0	MILD	N		NONE	NOT RECOVERED/NOT RESOLVED	N	N	N	N	N	N	N	TREATMENT	7/9/2014	7/6/2014		139	136	0
CDISCPILOT01	AE	01-704-1010	7	E08	CONTUSION	BRUISE OF HEAD	0	CONTUSION	0	HLT_0713	0	HLGT_0381	0	"INJURY, POISONING AND PROCEDURAL COMPLICATIONS"	0	"INJURY, POISONING AND PROCEDURAL COMPLICATIONS"	0	MILD	N		NONE	NOT RECOVERED/NOT RESOLVED	N	N	N	N	N	N	N	TREATMENT	7/9/2014	7/6/2014		139	136	0
CDISCPILOT01	AE	01-704-1010	1	E01	CYSTITIS	BLADDER INFECTION	0	CYSTITIS	0	HLT_0739	0	HLGT_0129	0	INFECTIONS AND INFESTATIONS	0	INFECTIONS AND INFESTATIONS	0	MILD	N		NONE	RECOVERED/RESOLVED	N	N	N	N	N	N	N	TREATMENT	3/8/2014	2/27/2014	3/6/2014	16	7	14
CDISCPILOT01	AE	01-704-1010	3	E04	DIARRHOEA	DIARRHEA	0	DIARRHOEA	0	HLT_0148	0	HLGT_0588	0	GASTROINTESTINAL DISORDERS	0	GASTROINTESTINAL DISORDERS	0	MILD	N		NONE	RECOVERED/RESOLVED	N	N	N	N	N	N	N	TREATMENT	7/9/2014	7/5/2014	7/6/2014	139	135	136
CDISCPILOT01	AE	01-704-1010	4	E05	EXCORIATION	ABRASION NOS	0	EXCORIATION	0	HLT_0738	0	HLGT_0511	0	"INJURY, POISONING AND PROCEDURAL COMPLICATIONS"	0	"INJURY, POISONING AND PROCEDURAL COMPLICATIONS"	0	MILD	N		NONE	NOT RECOVERED/NOT RESOLVED	N	N	N	N	N	N	N	TREATMENT	7/9/2014	7/6/2014		139	136	0
CDISCPILOT01	AE	01-704-1010	5	E06	SKIN LACERATION	SKIN TEAR	0	SKIN LACERATION	0	HLT_0075	0	HLGT_0118	0	"INJURY, POISONING AND PROCEDURAL COMPLICATIONS"	0	"INJURY, POISONING AND PROCEDURAL COMPLICATIONS"	0	MILD	N		NONE	NOT RECOVERED/NOT RESOLVED	N	N	N	N	N	N	N	TREATMENT	7/9/2014	7/6/2014		139	136	0
CDISCPILOT01	AE	01-704-1010	2	E03	VOMITING	VOMITING	0	VOMITING	0	HLT_0016	0	HLGT_0350	0	GASTROINTESTINAL DISORDERS	0	GASTROINTESTINAL DISORDERS	0	MILD	N		NONE	RECOVERED/RESOLVED	N	N	N	N	N	N	N	TREATMENT	7/9/2014	7/5/2014	7/6/2014	139	135	136
CDISCPILOT01	AE	01-704-1017	4	E16	CARDIAC DISORDER	CARDIAC DISORDER	0	CARDIAC DISORDER	0	HLT_0507	0	HLGT_0126	0	CARDIAC DISORDERS	0	CARDIAC DISORDERS	0	MILD	N		NONE	NOT RECOVERED/NOT RESOLVED	N	N	N	N	N	N	N	TREATMENT	11/9/2013	11/1/2013		35	27	0
CDISCPILOT01	AE	01-704-1017	3	E13	INFLUENZA	FLU	0	INFLUENZA	0	HLT_0125	0	HLGT_0081	0	INFECTIONS AND INFESTATIONS	0	INFECTIONS AND INFESTATIONS	0	MILD	N		NONE	RECOVERED/RESOLVED	N	N	N	N	N	N	N	TREATMENT	11/9/2013	11/1/2013	11/8/2013	35	27	34
CDISCPILOT01	AE	01-704-1017	1	E14	MYOCARDIAL INFARCTION	MYOCARDIAL INFARCTION	0	MYOCARDIAL INFARCTION	0	HLT_0649	0	HLGT_0688	0	CARDIAC DISORDERS	0	CARDIAC DISORDERS	0	MILD	N		NONE	NOT RECOVERED/NOT RESOLVED	N	N	N	N	N	N	N	TREATMENT	10/19/2013	10/19/2013		14	14	0
CDISCPILOT01	AE	01-704-1017	8	E12	PRURITUS	ITCHING	0	PRURITUS	0	HLT_0778	0	HLGT_0695	0	SKIN AND SUBCUTANEOUS TISSUE DISORDERS	0	SKIN AND SUBCUTANEOUS TISSUE DISORDERS	0	MILD	N		PROBABLE	RECOVERED/RESOLVED	N	N	N	N	N	N	N	TREATMENT	11/24/2013	11/5/2013	11/22/2013	50	31	48
CDISCPILOT01	AE	01-704-1017	7	E11	RASH	RASH	0	RASH	0	HLT_0762	0	HLGT_0198	0	SKIN AND SUBCUTANEOUS TISSUE DISORDERS	0	SKIN AND SUBCUTANEOUS TISSUE DISORDERS	0	MILD	N		PROBABLE	RECOVERED/RESOLVED	N	N	N	N	N	N	N	TREATMENT	11/24/2013	11/5/2013	11/22/2013	50	31	48
CDISCPILOT01	AE	01-704-1017	2	E15	VENTRICULAR SEPTAL DEFECT	VENTRICULAR SEPTAL DEFECT	0	VENTRICULAR SEPTAL DEFECT	0	HLT_0589	0	HLGT_0747	0	"CONGENITAL, FAMILIAL AND GENETIC DISORDERS"	0	"CONGENITAL, FAMILIAL AND GENETIC DISORDERS"	0	MILD	N		NONE	NOT RECOVERED/NOT RESOLVED	N	N	N	N	N	N	N	TREATMENT	10/19/2013	10/19/2013		14	14	0
CDISCPILOT01	AE	01-704-1025	5	E05	ELECTROCARDIOGRAM ST SEGMENT DEPRESSION	ST SEGMENT DEPRESSED	0	ELECTROCARDIOGRAM ST SEGMENT DEPRESSION	0	HLT_0610	0	HLGT_0220	0	INVESTIGATIONS	0	INVESTIGATIONS	0	MILD	N		POSSIBLE	RECOVERED/RESOLVED	N	N	N	N	N	N	N	TREATMENT	11/29/2013	10/11/2013	10/25/2013	64	15	29
CDISCPILOT01	AE	01-704-1025	2	E02	PALPITATIONS	PALPITATIONS	0	PALPITATIONS	0	HLT_0493	0	HLGT_0593	0	CARDIAC DISORDERS	0	CARDIAC DISORDERS	0	MODERATE	N		REMOTE	RECOVERED/RESOLVED	N	N	N	N	N	N	N	TREATMENT	10/11/2013	9/28/2013	9/30/2013	15	2	4
CDISCPILOT01	AE	01-704-1025	1	E01	VERTIGO	VERTIGO	0	VERTIGO	0	HLT_0255	0	HLGT_0147	0	EAR AND LABYRINTH DISORDERS	0	EAR AND LABYRINTH DISORDERS	0	MODERATE	N		POSSIBLE	RECOVERED/RESOLVED	N	N	N	N	N	N	N	TREATMENT	10/11/2013	9/28/2013	9/30/2013	15	2	4
CDISCPILOT01	AE	01-704-1025	6	E06	WOLFF-PARKINSON-WHITE SYNDROME	WOLFF-PARKINSON-WHITE SYNDROME	0	WOLFF-PARKINSON-WHITE SYNDROME	0	HLT_0612	0	HLGT_0218	0	CARDIAC DISORDERS	0	CARDIAC DISORDERS	0	MILD	N		POSSIBLE	RECOVERED/RESOLVED	N	N	N	N	N	N	N	TREATMENT	11/29/2013	10/25/2013	11/29/2013	64	29	64
CDISCPILOT01	AE	01-704-1065	1	E13	ABDOMINAL DISCOMFORT	ABDOMINAL DISCOMFORT	0	ABDOMINAL DISCOMFORT	0	HLT_0012	0	HLGT_0332	0	GASTROINTESTINAL DISORDERS	0	GASTROINTESTINAL DISORDERS	0	MILD	N		REMOTE	NOT RECOVERED/NOT RESOLVED	N	N	N	N	N	N	N	TREATMENT	11/7/2013	10/26/2013		15	3	0
CDISCPILOT01	AE	01-704-1065	4	E12	APPLICATION SITE IRRITATION	APPLICATION SITE BURNING	0	APPLICATION SITE IRRITATION	0	HLT_0061	0	HLGT_0346	0	GENERAL DISORDERS AND ADMINISTRATION SITE CONDITIONS	0	GENERAL DISORDERS AND ADMINISTRATION SITE CONDITIONS	0	MILD	N		PROBABLE	NOT RECOVERED/NOT RESOLVED	N	N	N	N	N	N	N	TREATMENT	11/25/2013	11/9/2013		33	17	0
CDISCPILOT01	AE	01-704-1065	3	E10	APPLICATION SITE PRURITUS	APPLICATION SITE ITCHING	0	APPLICATION SITE PRURITUS	0	HLT_0317	0	HLGT_0338	0	GENERAL DISORDERS AND ADMINISTRATION SITE CONDITIONS	0	GENERAL DISORDERS AND ADMINISTRATION SITE CONDITIONS	0	MODERATE	N		PROBABLE	NOT RECOVERED/NOT RESOLVED	N	N	N	N	N	N	N	TREATMENT	11/7/2013	10/27/2013		15	4	0
CDISCPILOT01	AE	01-704-1065	7	E16	CHILLS	CHILLS	0	CHILLS	0	HLT_0586	0	HLGT_0161	0	GENERAL DISORDERS AND ADMINISTRATION SITE CONDITIONS	0	GENERAL DISORDERS AND ADMINISTRATION SITE CONDITIONS	0	MILD	N		REMOTE	RECOVERED/RESOLVED	N	N	N	N	N	N	N	TREATMENT	11/25/2013	11/17/2013	11/17/2013	33	25	25
CDISCPILOT01	AE	01-704-1065	9	E18	DIARRHOEA	DIARRHEA	0	DIARRHOEA	0	HLT_0148	0	HLGT_0588	0	GASTROINTESTINAL DISORDERS	0	GASTROINTESTINAL DISORDERS	0	MILD	N		REMOTE	RECOVERED/RESOLVED	N	N	N	N	N	N	N	TREATMENT	12/20/2013	12/15/2013	12/15/2013	58	53	53
CDISCPILOT01	AE	01-704-1065	8	E17	DIZZINESS	DIZZINESS	0	DIZZINESS	0	HLT_0619	0	HLGT_0751	0	NERVOUS SYSTEM DISORDERS	0	NERVOUS SYSTEM DISORDERS	0	MILD	N		REMOTE	RECOVERED/RESOLVED	N	N	N	N	N	N	N	TREATMENT	11/25/2013	11/17/2013	11/17/2013	33	25	25
CDISCPILOT01	AE	01-704-1065	6	E15	HYPERHIDROSIS	PERSPIRATION EXCESSIVE	0	HYPERHIDROSIS	0	HLT_0587	0	HLGT_0005	0	SKIN AND SUBCUTANEOUS TISSUE DISORDERS	0	SKIN AND SUBCUTANEOUS TISSUE DISORDERS	0	MILD	N		POSSIBLE	NOT RECOVERED/NOT RESOLVED	N	N	N	N	N	N	N	TREATMENT	11/25/2013	11/9/2013		33	17	0
CDISCPILOT01	AE	01-704-1065	5	E14	MALAISE	MALAISE	0	MALAISE	0	HLT_0456	0	HLGT_0178	0	GENERAL DISORDERS AND ADMINISTRATION SITE CONDITIONS	0	GENERAL DISORDERS AND ADMINISTRATION SITE CONDITIONS	0	MILD	N		POSSIBLE	NOT RECOVERED/NOT RESOLVED	N	N	N	N	N	N	N	TREATMENT	11/25/2013	11/9/2013		33	17	0
CDISCPILOT01	AE	01-704-1065	2	E07	RASH	RASH	0	RASH	0	HLT_0762	0	HLGT_0198	0	SKIN AND SUBCUTANEOUS TISSUE DISORDERS	0	SKIN AND SUBCUTANEOUS TISSUE DISORDERS	0	MILD	N		PROBABLE	NOT RECOVERED/NOT RESOLVED	N	N	N	N	N	N	N	TREATMENT	11/7/2013	10/27/2013		15	4	0
CDISCPILOT01	AE	01-704-1065	10	E19	SINUS BRADYCARDIA	BRADYCARDIA SINUS	0	SINUS BRADYCARDIA	0	HLT_0644	0	HLGT_0500	0	CARDIAC DISORDERS	0	CARDIAC DISORDERS	0	MILD	N		NONE	NOT RECOVERED/NOT RESOLVED	N	N	N	N	N	N	N	TREATMENT	12/24/2013	12/24/2013		62	62	0
CDISCPILOT01	AE	01-704-1074	2	E09	ERYTHEMA	SKIN RED	0	ERYTHEMA	0	HLT_0284	0	HLGT_0192	0	SKIN AND SUBCUTANEOUS TISSUE DISORDERS	0	SKIN AND SUBCUTANEOUS TISSUE DISORDERS	0	MILD	N		PROBABLE	NOT RECOVERED/NOT RESOLVED	N	N	N	N	N	N	N	TREATMENT	2/9/2014	2/9/2014		19	19	0
CDISCPILOT01	AE	01-704-1074	1	E08	PRURITUS	ITCHING	0	PRURITUS	0	HLT_0778	0	HLGT_0695	0	SKIN AND SUBCUTANEOUS TISSUE DISORDERS	0	SKIN AND SUBCUTANEOUS TISSUE DISORDERS	0	MILD	N		PROBABLE	NOT RECOVERED/NOT RESOLVED	N	N	N	N	N	N	N	TREATMENT	1/22/2014	1/22/2014		1	1	0
CDISCPILOT01	AE	01-704-1093	2	E02	BLOOD GLUCOSE INCREASED	GLUCOSE INCREASED	0	BLOOD GLUCOSE INCREASED	0	HLT_0450	0	HLGT_0188	0	INVESTIGATIONS	0	INVESTIGATIONS	0	MILD	N		NONE	RECOVERED/RESOLVED	N	N	N	N	N	N	N	TREATMENT	4/17/2013	3/30/2013	4/13/2013	34	16	30
CDISCPILOT01	AE	01-704-1093	4	E06	PRURITUS	ITCHING	0	PRURITUS	0	HLT_0778	0	HLGT_0695	0	SKIN AND SUBCUTANEOUS TISSUE DISORDERS	0	SKIN AND SUBCUTANEOUS TISSUE DISORDERS	0	MILD	N		PROBABLE	NOT RECOVERED/NOT RESOLVED	N	N	N	N	N	N	N	TREATMENT	5/11/2013	5/4/2013		58	51	0
CDISCPILOT01	AE	01-704-1093	3	E05	RASH	RASH	0	RASH	0	HLT_0762	0	HLGT_0198	0	SKIN AND SUBCUTANEOUS TISSUE DISORDERS	0	SKIN AND SUBCUTANEOUS TISSUE DISORDERS	0	MILD	N		PROBABLE	NOT RECOVERED/NOT RESOLVED	N	N	N	N	N	N	N	TREATMENT	5/11/2013	5/4/2013		58	51	0
CDISCPILOT01	AE	01-704-1114	1	E06	ERYTHEMA	REDNESS	0	ERYTHEMA	0	HLT_0284	0	HLGT_0192	0	SKIN AND SUBCUTANEOUS TISSUE DISORDERS	0	SKIN AND SUBCUTANEOUS TISSUE DISORDERS	0	MILD	N		PROBABLE	RECOVERED/RESOLVED	N	N	N	N	N	N	N	TREATMENT	3/13/2013	2/21/2013	2/23/2013	50	30	32
CDISCPILOT01	AE	01-704-1114	5	E07	INFLUENZA	FLU	0	INFLUENZA	0	HLT_0125	0	HLGT_0081	0	INFECTIONS AND INFESTATIONS	0	INFECTIONS AND INFESTATIONS	0	MILD	N		NONE	RECOVERED/RESOLVED	N	N	N	N	N	N	N	TREATMENT	6/16/2013	6/7/2013	6/13/2013	145	136	142
CDISCPILOT01	AE	01-704-1114	2	E03	OEDEMA	EDEMA	0	OEDEMA	0	HLT_0656	0	HLGT_0036	0	GENERAL DISORDERS AND ADMINISTRATION SITE CONDITIONS	0	GENERAL DISORDERS AND ADMINISTRATION SITE CONDITIONS	0	MILD	N		PROBABLE	NOT RECOVERED/NOT RESOLVED	N	N	N	N	N	N	N	TREATMENT	3/13/2013	2/23/2013		50	32	0
CDISCPILOT01	AE	01-704-1114	4	E05	PRURITUS	ITCHING	0	PRURITUS	0	HLT_0778	0	HLGT_0695	0	SKIN AND SUBCUTANEOUS TISSUE DISORDERS	0	SKIN AND SUBCUTANEOUS TISSUE DISORDERS	0	MILD	N		PROBABLE	NOT RECOVERED/NOT RESOLVED	N	N	N	N	N	N	N	TREATMENT	3/26/2013	3/23/2013		63	60	0
CDISCPILOT01	AE	01-704-1114	3	E04	RASH	RASH	0	RASH	0	HLT_0762	0	HLGT_0198	0	SKIN AND SUBCUTANEOUS TISSUE DISORDERS	0	SKIN AND SUBCUTANEOUS TISSUE DISORDERS	0	MILD	N		PROBABLE	NOT RECOVERED/NOT RESOLVED	N	N	N	N	N	N	N	TREATMENT	3/26/2013	3/23/2013		63	60	0
CDISCPILOT01	AE	01-704-1120	6	E02	NASOPHARYNGITIS	COLD	0	NASOPHARYNGITIS	0	HLT_0036	0	HLGT_0709	0	INFECTIONS AND INFESTATIONS	0	INFECTIONS AND INFESTATIONS	0	MILD	N		NONE	RECOVERED/RESOLVED	N	N	N	N	N	N	N	TREATMENT	3/10/2014	12/28/2013	2/3/2014	99	27	64
CDISCPILOT01	AE	01-704-1120	4	E04	PRURITUS	ITCHING	0	PRURITUS	0	HLT_0778	0	HLGT_0695	0	SKIN AND SUBCUTANEOUS TISSUE DISORDERS	0	SKIN AND SUBCUTANEOUS TISSUE DISORDERS	0	MILD	N		PROBABLE	NOT RECOVERED/NOT RESOLVED	N	N	N	N	N	N	N	TREATMENT	1/27/2014	1/27/2014		57	57	0
CDISCPILOT01	AE	01-704-1120	5	E04	PRURITUS	ITCHING	0	PRURITUS	0	HLT_0778	0	HLGT_0695	0	SKIN AND SUBCUTANEOUS TISSUE DISORDERS	0	SKIN AND SUBCUTANEOUS TISSUE DISORDERS	0	MODERATE	N		PROBABLE	NOT RECOVERED/NOT RESOLVED	N	N	N	N	N	N	N	TREATMENT	2/3/2014	1/27/2014		64	57	0
CDISCPILOT01	AE	01-704-1120	1	E01	RASH	RASH	0	RASH	0	HLT_0762	0	HLGT_0198	0	SKIN AND SUBCUTANEOUS TISSUE DISORDERS	0	SKIN AND SUBCUTANEOUS TISSUE DISORDERS	0	MILD	N		PROBABLE	NOT RECOVERED/NOT RESOLVED	N	N	N	N	N	N	N	TREATMENT	12/29/2013	12/23/2013		28	22	0
CDISCPILOT01	AE	01-704-1120	3	E01	RASH	RASH	0	RASH	0	HLT_0762	0	HLGT_0198	0	SKIN AND SUBCUTANEOUS TISSUE DISORDERS	0	SKIN AND SUBCUTANEOUS TISSUE DISORDERS	0	MODERATE	N		PROBABLE	NOT RECOVERED/NOT RESOLVED	N	N	N	N	N	N	N	TREATMENT	1/27/2014	12/23/2013		57	22	0
CDISCPILOT01	AE	01-704-1135	1	E01	RASH	RASH	0	RASH	0	HLT_0762	0	HLGT_0198	0	SKIN AND SUBCUTANEOUS TISSUE DISORDERS	0	SKIN AND SUBCUTANEOUS TISSUE DISORDERS	0	MILD	N			NOT RECOVERED/NOT RESOLVED	N	N	N	N	N	N	N	TREATMENT	12/11/2013	12/8/2013		42	39	0
CDISCPILOT01	AE	01-704-1135	2	E01	RASH	RASH	0	RASH	0	HLT_0762	0	HLGT_0198	0	SKIN AND SUBCUTANEOUS TISSUE DISORDERS	0	SKIN AND SUBCUTANEOUS TISSUE DISORDERS	0	SEVERE	N			NOT RECOVERED/NOT RESOLVED	N	N	N	N	N	N	N	TREATMENT	2/19/2014	12/8/2013		112	39	0
CDISCPILOT01	AE	01-704-1164	2	E02	INFLUENZA	FLU	0	INFLUENZA	0	HLT_0125	0	HLGT_0081	0	INFECTIONS AND INFESTATIONS	0	INFECTIONS AND INFESTATIONS	0	MILD	N		NONE	RECOVERED/RESOLVED	N	N	N	N	N	N	N	TREATMENT	10/21/2012	9/27/2012	10/7/2012	33	9	19
CDISCPILOT01	AE	01-704-1164	3	E07	OEDEMA PERIPHERAL	SWELLING OF FEET	0	OEDEMA PERIPHERAL	0	HLT_0661	0	HLGT_0137	0	GENERAL DISORDERS AND ADMINISTRATION SITE CONDITIONS	0	GENERAL DISORDERS AND ADMINISTRATION SITE CONDITIONS	0	MILD	N		NONE	RECOVERED/RESOLVED	N	N	N	N	N	N	N	TREATMENT	2/14/2013	2/4/2013	2/13/2013	149	139	148
CDISCPILOT01	AE	01-704-1218	1	E05	BLOOD GLUCOSE INCREASED	GLUCOSE INCREASED	0	BLOOD GLUCOSE INCREASED	0	HLT_0450	0	HLGT_0188	0	INVESTIGATIONS	0	INVESTIGATIONS	0	MILD	N		NONE	NOT RECOVERED/NOT RESOLVED	N	N	N	N	N	N	N	TREATMENT	12/30/2012	12/30/2012		42	42	0
CDISCPILOT01	AE	01-704-1241	2	E03	DYSPNOEA	RESPIRATION LABORED	0	DYSPNOEA	0	HLT_0296	0	HLGT_0255	0	"RESPIRATORY, THORACIC AND MEDIASTINAL DISORDERS"	0	"RESPIRATORY, THORACIC AND MEDIASTINAL DISORDERS"	0	MILD	N		NONE	NOT RECOVERED/NOT RESOLVED	N	N	N	N	N	N	N	TREATMENT	10/9/2013	9/28/2013		46	35	0
CDISCPILOT01	AE	01-704-1241	1	E04	RASH	RASH	0	RASH	0	HLT_0762	0	HLGT_0198	0	SKIN AND SUBCUTANEOUS TISSUE DISORDERS	0	SKIN AND SUBCUTANEOUS TISSUE DISORDERS	0	MODERATE	N		NONE	NOT RECOVERED/NOT RESOLVED	N	N	N	N	N	N	N	SCREENING	10/9/2013	8/14/2013		46	-11	0
CDISCPILOT01	AE	01-704-1266	13	E13	ATRIAL FIBRILLATION	ATRIAL FIBRILLATION	0	ATRIAL FIBRILLATION	0	HLT_0365	0	HLGT_0012	0	CARDIAC DISORDERS	0	CARDIAC DISORDERS	0	MILD	N		NONE	RECOVERED/RESOLVED	N	N	N	N	N	N	N	TREATMENT	1/3/2014	11/8/2013	12/6/2013	83	27	55
CDISCPILOT01	AE	01-704-1266	5	E12	ATRIAL FLUTTER	ATRIAL FLUTTER	0	ATRIAL FLUTTER	0	HLT_0477	0	HLGT_0627	0	CARDIAC DISORDERS	0	CARDIAC DISORDERS	0	MILD	N		NONE	RECOVERED/RESOLVED	N	N	N	N	N	N	N	TREATMENT	11/10/2013	10/27/2013	11/8/2013	29	15	27
CDISCPILOT01	AE	01-704-1266	14	E16	BLISTER	BLISTERING	0	BLISTER	0	HLT_0752	0	HLGT_0267	0	SKIN AND SUBCUTANEOUS TISSUE DISORDERS	0	SKIN AND SUBCUTANEOUS TISSUE DISORDERS	0	MILD	N		PROBABLE	RECOVERED/RESOLVED	N	N	N	N	N	N	N	TREATMENT	1/3/2014	11/15/2013	12/14/2013	83	34	63
CDISCPILOT01	AE	01-704-1266	2	E10	ERYTHEMA	ERYTHEMA	0	ERYTHEMA	0	HLT_0284	0	HLGT_0192	0	SKIN AND SUBCUTANEOUS TISSUE DISORDERS	0	SKIN AND SUBCUTANEOUS TISSUE DISORDERS	0	MILD	N		PROBABLE	NOT RECOVERED/NOT RESOLVED	N	N	N	N	N	N	N	TREATMENT	10/27/2013	10/17/2013	12/23/2013	15	5	72
CDISCPILOT01	AE	01-704-1266	12	E10	ERYTHEMA	ERYTHEMA	0	ERYTHEMA	0	HLT_0284	0	HLGT_0192	0	SKIN AND SUBCUTANEOUS TISSUE DISORDERS	0	SKIN AND SUBCUTANEOUS TISSUE DISORDERS	0	MODERATE	N		PROBABLE	RECOVERED/RESOLVED	N	N	N	N	N	N	N	TREATMENT	1/3/2014	10/17/2013	12/23/2013	83	5	72
CDISCPILOT01	AE	01-704-1266	16	E18	ERYTHEMA	REDNESS	0	ERYTHEMA	0	HLT_0284	0	HLGT_0192	0	SKIN AND SUBCUTANEOUS TISSUE DISORDERS	0	SKIN AND SUBCUTANEOUS TISSUE DISORDERS	0	MILD	N		PROBABLE	RECOVERED/RESOLVED	N	N	N	N	N	N	N	TREATMENT	1/3/2014	12/6/2013	12/23/2013	83	55	72
CDISCPILOT01	AE	01-704-1266	10	E15	HYPERHIDROSIS	PERSPIRATION EXCESSIVE	0	HYPERHIDROSIS	0	HLT_0587	0	HLGT_0005	0	SKIN AND SUBCUTANEOUS TISSUE DISORDERS	0	SKIN AND SUBCUTANEOUS TISSUE DISORDERS	0	MILD	N		POSSIBLE	RECOVERED/RESOLVED	N	N	N	N	N	N	N	TREATMENT	12/6/2013	11/9/2013	12/4/2013	55	28	53
CDISCPILOT01	AE	01-704-1266	15	E17	PRURITUS	ITCHING	0	PRURITUS	0	HLT_0778	0	HLGT_0695	0	SKIN AND SUBCUTANEOUS TISSUE DISORDERS	0	SKIN AND SUBCUTANEOUS TISSUE DISORDERS	0	MILD	N		PROBABLE	RECOVERED/RESOLVED	N	N	N	N	N	N	N	TREATMENT	1/3/2014	11/15/2013	12/23/2013	83	34	72
CDISCPILOT01	AE	01-704-1266	1	E11	SEASONAL ALLERGY	HAY FEVER	0	SEASONAL ALLERGY	0	HLT_0714	0	HLGT_0782	0	IMMUNE SYSTEM DISORDERS	0	IMMUNE SYSTEM DISORDERS	0	MILD	N		NONE	NOT RECOVERED/NOT RESOLVED	N	N	N	N	N	N	N	SCREENING	10/11/2013	10/6/2013		-2	-7	0
CDISCPILOT01	AE	01-704-1323	4	E10	OEDEMA	EDEMA	0	OEDEMA	0	HLT_0656	0	HLGT_0036	0	GENERAL DISORDERS AND ADMINISTRATION SITE CONDITIONS	0	GENERAL DISORDERS AND ADMINISTRATION SITE CONDITIONS	0	MILD	N		PROBABLE	NOT RECOVERED/NOT RESOLVED	N	N	N	N	N	N	N	TREATMENT	8/4/2013	8/4/2013		28	28	0
CDISCPILOT01	AE	01-704-1323	3	E09	PRURITUS	ITCHING	0	PRURITUS	0	HLT_0778	0	HLGT_0695	0	SKIN AND SUBCUTANEOUS TISSUE DISORDERS	0	SKIN AND SUBCUTANEOUS TISSUE DISORDERS	0	MILD	N		PROBABLE	NOT RECOVERED/NOT RESOLVED	N	N	N	N	N	N	N	TREATMENT	8/4/2013	8/4/2013		28	28	0
CDISCPILOT01	AE	01-704-1323	2	E08	RASH	RASH	0	RASH	0	HLT_0762	0	HLGT_0198	0	SKIN AND SUBCUTANEOUS TISSUE DISORDERS	0	SKIN AND SUBCUTANEOUS TISSUE DISORDERS	0	MILD	N		PROBABLE	NOT RECOVERED/NOT RESOLVED	N	N	N	N	N	N	N	TREATMENT	8/4/2013	8/4/2013		28	28	0
CDISCPILOT01	AE	01-704-1323	1	E07	VIRAL INFECTION	VIRAL INFECTION	0	VIRAL INFECTION	0	HLT_0733	0	HLGT_0408	0	INFECTIONS AND INFESTATIONS	0	INFECTIONS AND INFESTATIONS	0	MILD	N		NONE	RECOVERED/RESOLVED	N	N	N	N	N	N	N	TREATMENT	8/4/2013	7/30/2013	8/3/2013	28	23	27
CDISCPILOT01	AE	01-704-1325	2	E05	PRURITUS	ITCHING	0	PRURITUS	0	HLT_0778	0	HLGT_0695	0	SKIN AND SUBCUTANEOUS TISSUE DISORDERS	0	SKIN AND SUBCUTANEOUS TISSUE DISORDERS	0	MILD	N		PROBABLE	NOT RECOVERED/NOT RESOLVED	N	N	N	N	N	N	N	TREATMENT	7/16/2014	7/4/2014		85	73	0
CDISCPILOT01	AE	01-704-1325	1	E04	RASH	RASH	0	RASH	0	HLT_0762	0	HLGT_0198	0	SKIN AND SUBCUTANEOUS TISSUE DISORDERS	0	SKIN AND SUBCUTANEOUS TISSUE DISORDERS	0	MILD	N		PROBABLE	NOT RECOVERED/NOT RESOLVED	N	N	N	N	N	N	N	TREATMENT	6/4/2014	5/23/2014		43	31	0
CDISCPILOT01	AE	01-704-1332	4	E05	BURNING SENSATION	BURNING SENSATION	0	BURNING SENSATION	0	HLT_0775	0	HLGT_0456	0	NERVOUS SYSTEM DISORDERS	0	NERVOUS SYSTEM DISORDERS	0	MILD	N		PROBABLE	NOT RECOVERED/NOT RESOLVED	N	N	N	N	N	N	N	TREATMENT	2/3/2014	2/3/2014		57	57	0
CDISCPILOT01	AE	01-704-1332	6	E02	PRURITUS	ITCHING	0	PRURITUS	0	HLT_0778	0	HLGT_0695	0	SKIN AND SUBCUTANEOUS TISSUE DISORDERS	0	SKIN AND SUBCUTANEOUS TISSUE DISORDERS	0	MILD	N		PROBABLE	RECOVERED/RESOLVED	N	N	N	N	N	N	N	TREATMENT	2/24/2014	1/18/2014	2/24/2014	78	41	78
CDISCPILOT01	AE	01-704-1332	1	E01	RASH	RASH	0	RASH	0	HLT_0762	0	HLGT_0198	0	SKIN AND SUBCUTANEOUS TISSUE DISORDERS	0	SKIN AND SUBCUTANEOUS TISSUE DISORDERS	0	MILD	N		NONE	NOT RECOVERED/NOT RESOLVED	N	N	N	N	N	N	N	TREATMENT	12/23/2013	12/10/2013	2/24/2014	15	2	78
CDISCPILOT01	AE	01-704-1332	5	E01	RASH	RASH	0	RASH	0	HLT_0762	0	HLGT_0198	0	SKIN AND SUBCUTANEOUS TISSUE DISORDERS	0	SKIN AND SUBCUTANEOUS TISSUE DISORDERS	0	MODERATE	N		NONE	RECOVERED/RESOLVED	N	N	N	N	N	N	N	TREATMENT	2/24/2014	12/10/2013	2/24/2014	78	2	78
CDISCPILOT01	AE	01-704-1351	4	E03	FLATULENCE	GAS	0	FLATULENCE	0	HLT_0356	0	HLGT_0504	0	GASTROINTESTINAL DISORDERS	0	GASTROINTESTINAL DISORDERS	0	MILD	N		NONE	RECOVERED/RESOLVED	N	N	N	N	N	N	N	TREATMENT	4/18/2014	10/27/2013	4/4/2014	189	16	175
CDISCPILOT01	AE	01-704-1351	3	E02	POLLAKIURIA	URINARY FREQUENCY	0	POLLAKIURIA	0	HLT_0393	0	HLGT_0560	0	RENAL AND URINARY DISORDERS	0	RENAL AND URINARY DISORDERS	0	MILD	N		NONE	RECOVERED/RESOLVED	N	N	N	N	N	N	N	TREATMENT	4/18/2014	10/27/2013	4/4/2014	189	16	175
CDISCPILOT01	AE	01-704-1388	1	E01	HEADACHE	HEADACHE	0	HEADACHE	0	HLT_0064	0	HLGT_0344	0	NERVOUS SYSTEM DISORDERS	0	NERVOUS SYSTEM DISORDERS	0	MODERATE	N		NONE	NOT RECOVERED/NOT RESOLVED	N	N	N	N	N	N	N	SCREENING	3/27/2013	8/23/2012		111	-106	0
CDISCPILOT01	AE	01-704-1435	1	E08	PARKINSON'S DISEASE	DISEASE PARKINSON'S	0	PARKINSON'S DISEASE	0	HLT_0279	0	HLGT_0313	0	NERVOUS SYSTEM DISORDERS	0	NERVOUS SYSTEM DISORDERS	0	MILD	N		NONE	NOT RECOVERED/NOT RESOLVED	N	N	N	N	N	N	N	TREATMENT	1/12/2013	1/6/2013		57	51	0
CDISCPILOT01	AE	01-704-1445	1	E06	COMPLETED SUICIDE	SUICIDE	0	COMPLETED SUICIDE	0	HLT_0625	0	HLGT_0013	0	PSYCHIATRIC DISORDERS	0	PSYCHIATRIC DISORDERS	0	SEVERE	N		NONE	FATAL	N	N	N	Y	N	N	N	TREATMENT	11/1/2014	10/31/2014	10/31/2014	175	174	174
CDISCPILOT01	AE	01-705-1031	1	E02	RASH	RASH	0	RASH	0	HLT_0762	0	HLGT_0198	0	SKIN AND SUBCUTANEOUS TISSUE DISORDERS	0	SKIN AND SUBCUTANEOUS TISSUE DISORDERS	0	MILD	N		POSSIBLE	NOT RECOVERED/NOT RESOLVED	N	N	N	N	N	N	N	TREATMENT	12/25/2013	12/25/2013		29	29	0
CDISCPILOT01	AE	01-705-1059	1	E02	ERYTHEMA	ERYTHEMA	0	ERYTHEMA	0	HLT_0284	0	HLGT_0192	0	SKIN AND SUBCUTANEOUS TISSUE DISORDERS	0	SKIN AND SUBCUTANEOUS TISSUE DISORDERS	0	MODERATE	N		PROBABLE	NOT RECOVERED/NOT RESOLVED	N	N	N	N	N	N	N	TREATMENT	11/7/2013	11/2/2013		95	90	0
CDISCPILOT01	AE	01-705-1186	1	E02	HYPERBILIRUBINAEMIA	HYPERBILIRUBINEMIA	0	HYPERBILIRUBINAEMIA	0	HLT_0478	0	HLGT_0087	0	HEPATOBILIARY DISORDERS	0	HEPATOBILIARY DISORDERS	0	MODERATE	N		REMOTE	NOT RECOVERED/NOT RESOLVED	N	N	N	N	N	N	N	TREATMENT	2/7/2014	1/26/2014		31	19	0
CDISCPILOT01	AE	01-705-1199	2	E06	DYSPEPSIA	PYROSIS	0	DYSPEPSIA	0	HLT_0244	0	HLGT_0716	0	GASTROINTESTINAL DISORDERS	0	GASTROINTESTINAL DISORDERS	0	MODERATE	N		POSSIBLE	RECOVERED/RESOLVED	N	N	N	N	N	N	N	TREATMENT	9/29/2013	9/17/2013	9/29/2013	14	2	14
CDISCPILOT01	AE	01-705-1280	1	E01	PRURITUS	PRURITUS	0	PRURITUS	0	HLT_0778	0	HLGT_0695	0	SKIN AND SUBCUTANEOUS TISSUE DISORDERS	0	SKIN AND SUBCUTANEOUS TISSUE DISORDERS	0	MILD	N		POSSIBLE	NOT RECOVERED/NOT RESOLVED	N	N	N	N	N	N	N	TREATMENT	5/16/2014	4/20/2014		120	94	0
CDISCPILOT01	AE	01-705-1281	2	E05	EXCORIATION	ABRASIONS	0	EXCORIATION	0	HLT_0738	0	HLGT_0511	0	"INJURY, POISONING AND PROCEDURAL COMPLICATIONS"	0	"INJURY, POISONING AND PROCEDURAL COMPLICATIONS"	0	MODERATE	N		PROBABLE	NOT RECOVERED/NOT RESOLVED	N	N	N	N	N	N	N	TREATMENT	2/18/2014	1/30/2014		83	64	0
CDISCPILOT01	AE	01-705-1281	1	E04	PRURITUS	PRURITUS	0	PRURITUS	0	HLT_0778	0	HLGT_0695	0	SKIN AND SUBCUTANEOUS TISSUE DISORDERS	0	SKIN AND SUBCUTANEOUS TISSUE DISORDERS	0	MILD	N		POSSIBLE	NOT RECOVERED/NOT RESOLVED	N	N	N	N	N	N	N	TREATMENT	2/18/2014	1/30/2014		83	64	0
CDISCPILOT01	AE	01-705-1281	3	E04	PRURITUS	PRURITUS	0	PRURITUS	0	HLT_0778	0	HLGT_0695	0	SKIN AND SUBCUTANEOUS TISSUE DISORDERS	0	SKIN AND SUBCUTANEOUS TISSUE DISORDERS	0	MODERATE	N		POSSIBLE	NOT RECOVERED/NOT RESOLVED	N	N	N	N	N	N	N	TREATMENT	3/17/2014	1/30/2014		110	64	0
CDISCPILOT01	AE	01-705-1292	2	E02	ERYTHEMA	ERYTHEMA	0	ERYTHEMA	0	HLT_0284	0	HLGT_0192	0	SKIN AND SUBCUTANEOUS TISSUE DISORDERS	0	SKIN AND SUBCUTANEOUS TISSUE DISORDERS	0	MODERATE	N		PROBABLE	NOT RECOVERED/NOT RESOLVED	N	N	N	N	N	N	N	TREATMENT	3/3/2014	2/13/2014		141	123	0
CDISCPILOT01	AE	01-705-1292	1	E01	PRURITUS	ITCHY	0	PRURITUS	0	HLT_0778	0	HLGT_0695	0	SKIN AND SUBCUTANEOUS TISSUE DISORDERS	0	SKIN AND SUBCUTANEOUS TISSUE DISORDERS	0	MILD	N		PROBABLE	NOT RECOVERED/NOT RESOLVED	N	N	N	N	N	N	N	TREATMENT	10/29/2013	10/28/2013		16	15	0
CDISCPILOT01	AE	01-705-1303	3	E02	PRURITUS	PRURITUS	0	PRURITUS	0	HLT_0778	0	HLGT_0695	0	SKIN AND SUBCUTANEOUS TISSUE DISORDERS	0	SKIN AND SUBCUTANEOUS TISSUE DISORDERS	0	MILD	N		POSSIBLE	RECOVERED/RESOLVED	N	N	N	N	N	N	N	TREATMENT	4/7/2014	2/5/2014	3/3/2014	113	52	78
CDISCPILOT01	AE	01-705-1303	2	E03	RASH	RASH	0	RASH	0	HLT_0762	0	HLGT_0198	0	SKIN AND SUBCUTANEOUS TISSUE DISORDERS	0	SKIN AND SUBCUTANEOUS TISSUE DISORDERS	0	MILD	N		POSSIBLE	NOT RECOVERED/NOT RESOLVED	N	N	N	N	N	N	N	TREATMENT	2/10/2014	2/5/2014	3/3/2014	57	52	78
CDISCPILOT01	AE	01-705-1303	4	E03	RASH	RASH	0	RASH	0	HLT_0762	0	HLGT_0198	0	SKIN AND SUBCUTANEOUS TISSUE DISORDERS	0	SKIN AND SUBCUTANEOUS TISSUE DISORDERS	0	MODERATE	N		POSSIBLE	RECOVERED/RESOLVED	N	N	N	N	N	N	N	TREATMENT	4/7/2014	2/5/2014	3/3/2014	113	52	78
CDISCPILOT01	AE	01-705-1310	1	E02	RASH PRURITIC	PRURITIC RASH	0	RASH PRURITIC	0	HLT_0127	0	HLGT_0753	0	SKIN AND SUBCUTANEOUS TISSUE DISORDERS	0	SKIN AND SUBCUTANEOUS TISSUE DISORDERS	0	MODERATE	N		POSSIBLE	NOT RECOVERED/NOT RESOLVED	N	N	N	N	N	N	N	TREATMENT	11/22/2013	11/14/2013		21	13	0
CDISCPILOT01	AE	01-705-1310	2	E03	WOUND HAEMORRHAGE	WOUND BLEEDING	0	WOUND HAEMORRHAGE	0	HLT_0154	0	HLGT_0162	0	VASCULAR DISORDERS	0	VASCULAR DISORDERS	0	MODERATE	N		POSSIBLE	NOT RECOVERED/NOT RESOLVED	N	N	N	N	N	N	N	TREATMENT	1/23/2014	1/9/2014		83	69	0
CDISCPILOT01	AE	01-705-1349	4	E06	ELECTROCARDIOGRAM ST SEGMENT DEPRESSION	ST SEGMENT DEPRESSED	0	ELECTROCARDIOGRAM ST SEGMENT DEPRESSION	0	HLT_0610	0	HLGT_0220	0	INVESTIGATIONS	0	INVESTIGATIONS	0	MILD	N		REMOTE	NOT RECOVERED/NOT RESOLVED	N	N	N	N	N	N	N	TREATMENT	8/25/2013	8/25/2013		169	169	0
CDISCPILOT01	AE	01-705-1349	1	E03	NAUSEA	NAUSEA	0	NAUSEA	0	HLT_0742	0	HLGT_0326	0	GASTROINTESTINAL DISORDERS	0	GASTROINTESTINAL DISORDERS	0	MILD	N		REMOTE	RECOVERED/RESOLVED	N	N	N	N	N	N	N	TREATMENT	4/17/2013	4/8/2013	4/8/2013	39	30	30
CDISCPILOT01	AE	01-705-1349	3	E05	VENTRICULAR HYPERTROPHY	LEFT VENTRICULAR HYPERTROPHY	0	VENTRICULAR HYPERTROPHY	0	HLT_0104	0	HLGT_0259	0	CARDIAC DISORDERS	0	CARDIAC DISORDERS	0	MILD	N		REMOTE	NOT RECOVERED/NOT RESOLVED	N	N	N	N	N	N	N	TREATMENT	8/25/2013	8/25/2013		169	169	0
CDISCPILOT01	AE	01-705-1349	2	E04	VOMITING	VOMITING	0	VOMITING	0	HLT_0016	0	HLGT_0350	0	GASTROINTESTINAL DISORDERS	0	GASTROINTESTINAL DISORDERS	0	MILD	N		REMOTE	RECOVERED/RESOLVED	N	N	N	N	N	N	N	TREATMENT	4/17/2013	4/11/2013	4/11/2013	39	33	33
CDISCPILOT01	AE	01-705-1393	1	E01	ABDOMINAL PAIN	ABDOMINAL CRAMPS	0	ABDOMINAL PAIN	0	HLT_0217	0	HLGT_0419	0	GASTROINTESTINAL DISORDERS	0	GASTROINTESTINAL DISORDERS	0	MILD	N		REMOTE	RECOVERED/RESOLVED	N	N	N	N	N	N	N	TREATMENT	9/27/2012	9/19/2012	9/24/2012	21	13	18
CDISCPILOT01	AE	01-705-1393	3	E05	COLON CANCER	COLON CANCER	0	COLON CANCER	0	HLT_0597	0	HLGT_0339	0	"NEOPLASMS BENIGN, MALIGNANT AND UNSPECIFIED (INCL CYSTS AND POLYPS)"	0	"NEOPLASMS BENIGN, MALIGNANT AND UNSPECIFIED (INCL CYSTS AND POLYPS)"	0	SEVERE	N		NONE	RECOVERED/RESOLVED	Y	N	N	N	Y	N	N	TREATMENT	2/20/2013	1/21/2013	1/24/2013	167	137	140
CDISCPILOT01	AE	01-705-1393	4	E04	PRURITUS	PRURITUS	0	PRURITUS	0	HLT_0778	0	HLGT_0695	0	SKIN AND SUBCUTANEOUS TISSUE DISORDERS	0	SKIN AND SUBCUTANEOUS TISSUE DISORDERS	0	MILD	N		PROBABLE	RECOVERED/RESOLVED	N	N	N	N	N	N	N	SCREENING	4/25/2013	12/5/2011	2/20/2013	231	-277	167
CDISCPILOT01	AE	01-705-1431	2	E04	ANXIETY	FEELING ANXIOUS	0	ANXIETY	0	HLT_0559	0	HLGT_0570	0	PSYCHIATRIC DISORDERS	0	PSYCHIATRIC DISORDERS	0	MILD	N		POSSIBLE	RECOVERED/RESOLVED	N	N	N	N	N	N	N	TREATMENT	7/7/2013	7/4/2013	7/6/2013	15	12	14
CDISCPILOT01	AE	01-705-1431	1	E05	RASH ERYTHEMATOUS	ERYTHEMATOUS RASH	0	RASH ERYTHEMATOUS	0	HLT_0336	0	HLGT_0701	0	SKIN AND SUBCUTANEOUS TISSUE DISORDERS	0	SKIN AND SUBCUTANEOUS TISSUE DISORDERS	0	MILD	N		PROBABLE	NOT RECOVERED/NOT RESOLVED	N	N	N	N	N	N	N	SCREENING	6/23/2013	6/22/2013		1	-1	0
CDISCPILOT01	AE	01-706-1041	1	E02	ANXIETY	ANXIETY ATTACK	0	ANXIETY	0	HLT_0559	0	HLGT_0570	0	PSYCHIATRIC DISORDERS	0	PSYCHIATRIC DISORDERS	0	MODERATE	N		REMOTE	NOT RECOVERED/NOT RESOLVED	N	N	N	N	N	N	N	SCREENING	1/14/2014	2012-05		15	0	0
CDISCPILOT01	AE	01-706-1041	7	E02	ANXIETY	ANXIETY ATTACK	0	ANXIETY	0	HLT_0559	0	HLGT_0570	0	PSYCHIATRIC DISORDERS	0	PSYCHIATRIC DISORDERS	0	MILD	N		REMOTE	NOT RECOVERED/NOT RESOLVED	N	N	N	N	N	N	N	SCREENING	5/6/2014	2012-05		127	0	0
CDISCPILOT01	AE	01-706-1041	2	E01	DIARRHOEA	DIARRHEA	0	DIARRHOEA	0	HLT_0148	0	HLGT_0588	0	GASTROINTESTINAL DISORDERS	0	GASTROINTESTINAL DISORDERS	0	MILD	N		REMOTE	RECOVERED/RESOLVED	N	N	N	N	N	N	N	TREATMENT	1/14/2014	1/7/2014	1/8/2014	15	8	9
CDISCPILOT01	AE	01-706-1041	5	E07	EXCORIATION	ABRASIONS	0	EXCORIATION	0	HLT_0738	0	HLGT_0511	0	"INJURY, POISONING AND PROCEDURAL COMPLICATIONS"	0	"INJURY, POISONING AND PROCEDURAL COMPLICATIONS"	0	MILD	N		NONE	RECOVERED/RESOLVED	N	N	N	N	N	N	N	TREATMENT	1/30/2014	1/14/2014	1/28/2014	31	15	29
CDISCPILOT01	AE	01-706-1041	8	E03	IRRITABILITY	IRRITABILITY	0	IRRITABILITY	0	HLT_0627	0	HLGT_0461	0	PSYCHIATRIC DISORDERS	0	PSYCHIATRIC DISORDERS	0	MODERATE	N		POSSIBLE	RECOVERED/RESOLVED	N	N	N	N	N	N	N	TREATMENT	7/29/2014	1/15/2014	7/29/2014	211	16	211
CDISCPILOT01	AE	01-706-1041	9	E08	PRURITUS	ITCHING	0	PRURITUS	0	HLT_0778	0	HLGT_0695	0	SKIN AND SUBCUTANEOUS TISSUE DISORDERS	0	SKIN AND SUBCUTANEOUS TISSUE DISORDERS	0	MILD	N		POSSIBLE	RECOVERED/RESOLVED	N	N	N	N	N	N	N	TREATMENT	7/29/2014	3/4/2014	7/29/2014	211	64	211
CDISCPILOT01	AE	01-706-1049	1	E01	SYNCOPE	FAINTING	0	SYNCOPE	0	HLT_0440	0	HLGT_0310	0	NERVOUS SYSTEM DISORDERS	0	NERVOUS SYSTEM DISORDERS	0	MODERATE	N		POSSIBLE	RECOVERED/RESOLVED	N	N	N	N	N	N	N	TREATMENT	6/11/2013	6/3/2013	6/3/2013	29	21	21
CDISCPILOT01	AE	01-706-1049	2	E02	SYNCOPE	SYNCOPAL ATTACK	0	SYNCOPE	0	HLT_0440	0	HLGT_0310	0	NERVOUS SYSTEM DISORDERS	0	NERVOUS SYSTEM DISORDERS	0	SEVERE	N		PROBABLE	RECOVERED/RESOLVED	N	N	N	N	Y	N	N	TREATMENT	6/25/2013	6/18/2013	6/18/2013	43	36	36
CDISCPILOT01	AE	01-706-1384	6	E03	ERYTHEMA	ERYTHEMA	0	ERYTHEMA	0	HLT_0284	0	HLGT_0192	0	SKIN AND SUBCUTANEOUS TISSUE DISORDERS	0	SKIN AND SUBCUTANEOUS TISSUE DISORDERS	0	MODERATE	N		NONE	RECOVERED/RESOLVED	N	N	N	N	N	N	N	TREATMENT	6/22/2013	9/15/2012	9/29/2012	281	1	15
CDISCPILOT01	AE	01-706-1384	9	E01	ERYTHEMA	ERYTHEMA	0	ERYTHEMA	0	HLT_0284	0	HLGT_0192	0	SKIN AND SUBCUTANEOUS TISSUE DISORDERS	0	SKIN AND SUBCUTANEOUS TISSUE DISORDERS	0	MODERATE	N		PROBABLE	RECOVERED/RESOLVED	N	N	N	N	N	N	N	TREATMENT	6/22/2013	9/23/2012	9/29/2012	281	9	15
CDISCPILOT01	AE	01-706-1384	8	E05	EXCORIATION	ABRASIONS	0	EXCORIATION	0	HLT_0738	0	HLGT_0511	0	"INJURY, POISONING AND PROCEDURAL COMPLICATIONS"	0	"INJURY, POISONING AND PROCEDURAL COMPLICATIONS"	0	MODERATE	N		NONE	RECOVERED/RESOLVED	N	N	N	N	N	N	N	TREATMENT	6/22/2013	9/15/2012	9/29/2012	281	1	15
CDISCPILOT01	AE	01-706-1384	7	E04	PRURITUS	PRURITIS	0	PRURITUS	0	HLT_0778	0	HLGT_0695	0	SKIN AND SUBCUTANEOUS TISSUE DISORDERS	0	SKIN AND SUBCUTANEOUS TISSUE DISORDERS	0	MODERATE	N		NONE	RECOVERED/RESOLVED	N	N	N	N	N	N	N	TREATMENT	6/22/2013	9/15/2012	9/29/2012	281	1	15
CDISCPILOT01	AE	01-706-1384	10	E06	PRURITUS	PRURITIS	0	PRURITUS	0	HLT_0778	0	HLGT_0695	0	SKIN AND SUBCUTANEOUS TISSUE DISORDERS	0	SKIN AND SUBCUTANEOUS TISSUE DISORDERS	0	MODERATE	N		PROBABLE	RECOVERED/RESOLVED	N	N	N	N	N	N	N	TREATMENT	6/22/2013	9/23/2012	9/29/2012	281	9	15
CDISCPILOT01	AE	01-707-1206	4	E03	BLOOD CREATINE PHOSPHOKINASE INCREASED	CPK INCREASE	0	BLOOD CREATINE PHOSPHOKINASE INCREASED	0	HLT_0404	0	HLGT_0008	0	INVESTIGATIONS	0	INVESTIGATIONS	0	MODERATE	N		POSSIBLE	RECOVERED/RESOLVED	N	N	N	N	N	N	N	TREATMENT	12/23/2013	11/26/2013	12/9/2013	57	30	43
CDISCPILOT01	AE	01-707-1206	8	E06	CONJUNCTIVITIS	CONJUNCTIVITIS	0	CONJUNCTIVITIS	0	HLT_0584	0	HLGT_0335	0	EYE DISORDERS	0	EYE DISORDERS	0	MODERATE	N		REMOTE	RECOVERED/RESOLVED	N	N	N	N	N	N	N	TREATMENT	3/16/2014	2/8/2014	2/22/2014	140	104	118
CDISCPILOT01	AE	01-707-1206	5	E05	POSTNASAL DRIP	POSTNASAL DRIP	0	POSTNASAL DRIP	0	HLT_0172	0	HLGT_0032	0	"RESPIRATORY, THORACIC AND MEDIASTINAL DISORDERS"	0	"RESPIRATORY, THORACIC AND MEDIASTINAL DISORDERS"	0	MILD	N		NONE	RECOVERED/RESOLVED	N	N	N	N	N	N	N	TREATMENT	12/23/2013	12/3/2013	12/10/2013	57	37	44
CDISCPILOT01	AE	01-707-1206	6	E04	SINUS ARRHYTHMIA	SINUS ARRHYTHMIA	0	SINUS ARRHYTHMIA	0	HLT_0094	0	HLGT_0630	0	CARDIAC DISORDERS	0	CARDIAC DISORDERS	0	MILD	N		POSSIBLE	RECOVERED/RESOLVED	N	N	N	N	N	N	N	TREATMENT	1/19/2014	11/25/2013	12/23/2013	84	29	57
CDISCPILOT01	AE	01-708-1019	5	E06	DIZZINESS	DIZZINESS	0	DIZZINESS	0	HLT_0619	0	HLGT_0751	0	NERVOUS SYSTEM DISORDERS	0	NERVOUS SYSTEM DISORDERS	0	MILD	N		POSSIBLE	RECOVERED/RESOLVED	N	N	N	N	N	N	N	TREATMENT	1/23/2014	1/1/2014	1/1/2014	35	13	13
CDISCPILOT01	AE	01-708-1019	1	E02	HEADACHE	FRONTAL HEADACHE	0	HEADACHE	0	HLT_0064	0	HLGT_0344	0	NERVOUS SYSTEM DISORDERS	0	NERVOUS SYSTEM DISORDERS	0	SEVERE	N		POSSIBLE	RECOVERED/RESOLVED	N	N	N	N	N	N	N	TREATMENT	1/23/2014	12/31/2013	12/31/2013	35	12	12
CDISCPILOT01	AE	01-708-1019	2	E03	STUPOR	STUPOR	0	STUPOR	0	HLT_0595	0	HLGT_0513	0	NERVOUS SYSTEM DISORDERS	0	NERVOUS SYSTEM DISORDERS	0	SEVERE	N		POSSIBLE	RECOVERED/RESOLVED	N	N	N	N	N	N	N	TREATMENT	1/23/2014	1/1/2014	1/1/2014	35	13	13
CDISCPILOT01	AE	01-708-1019	3	E04	TRANSIENT ISCHAEMIC ATTACK	TRANSIENT ISCHEMIC ATTACKS	0	TRANSIENT ISCHAEMIC ATTACK	0	HLT_0041	0	HLGT_0433	0	NERVOUS SYSTEM DISORDERS	0	NERVOUS SYSTEM DISORDERS	0	SEVERE	N		POSSIBLE	RECOVERED/RESOLVED	N	N	N	N	N	N	N	TREATMENT	1/23/2014	1/1/2014	1/1/2014	35	13	13
CDISCPILOT01	AE	01-708-1019	4	E05	VISION BLURRED	BLURRED VISION	0	VISION BLURRED	0	HLT_0120	0	HLGT_0598	0	EYE DISORDERS	0	EYE DISORDERS	0	MILD	N		POSSIBLE	RECOVERED/RESOLVED	N	N	N	N	N	N	N	TREATMENT	1/23/2014	1/1/2014	1/1/2014	35	13	13
CDISCPILOT01	AE	01-708-1032	1	E05	APPLICATION SITE VESICLES	APPLICATION SITE BLISTER	0	APPLICATION SITE VESICLES	0	HLT_0180	0	HLGT_0576	0	GENERAL DISORDERS AND ADMINISTRATION SITE CONDITIONS	0	GENERAL DISORDERS AND ADMINISTRATION SITE CONDITIONS	0	MODERATE	N		PROBABLE	RECOVERED/RESOLVED	N	N	N	N	N	N	N	TREATMENT	3/9/2013	2/26/2013	3/9/2013	29	18	29
CDISCPILOT01	AE	01-708-1084	2	E02	DIZZINESS	DIZZINESS	0	DIZZINESS	0	HLT_0619	0	HLGT_0751	0	NERVOUS SYSTEM DISORDERS	0	NERVOUS SYSTEM DISORDERS	0	MILD	N		POSSIBLE	RECOVERED/RESOLVED	N	N	N	N	N	N	N	TREATMENT	6/9/2013	5/23/2013	5/23/2013	32	15	15
CDISCPILOT01	AE	01-708-1084	4	E07	MYOCARDIAL INFARCTION	MYOCARDIAL INFARCTION	0	MYOCARDIAL INFARCTION	0	HLT_0649	0	HLGT_0688	0	CARDIAC DISORDERS	0	CARDIAC DISORDERS	0	MILD	N		REMOTE	RECOVERED/RESOLVED	N	N	N	N	N	N	N	TREATMENT	6/11/2013	6/9/2013	6/9/2013	34	32	32
CDISCPILOT01	AE	01-708-1084	6	E06	SINUS BRADYCARDIA	SINUS BRADYCARDIA	0	SINUS BRADYCARDIA	0	HLT_0644	0	HLGT_0500	0	CARDIAC DISORDERS	0	CARDIAC DISORDERS	0	MILD	N		REMOTE	RECOVERED/RESOLVED	N	N	N	N	N	N	N	TREATMENT	7/7/2013	6/23/2013	6/23/2013	60	46	46
CDISCPILOT01	AE	01-708-1087	3	E03	DIZZINESS	DIZZINESS	0	DIZZINESS	0	HLT_0619	0	HLGT_0751	0	NERVOUS SYSTEM DISORDERS	0	NERVOUS SYSTEM DISORDERS	0	MILD	N		POSSIBLE	RECOVERED/RESOLVED	N	N	N	N	N	N	N	TREATMENT	2/16/2013	2/4/2013	2/8/2013	118	106	110
CDISCPILOT01	AE	01-708-1087	4	E02	HEADACHE	HEADACHE	0	HEADACHE	0	HLT_0064	0	HLGT_0344	0	NERVOUS SYSTEM DISORDERS	0	NERVOUS SYSTEM DISORDERS	0	MILD	N		NONE	NOT RECOVERED/NOT RESOLVED	N	N	N	N	N	N	N	TREATMENT	2/16/2013	2/16/2013		118	118	0
CDISCPILOT01	AE	01-708-1087	2	E05	HEART RATE IRREGULAR	HEARTBEATS IRREGULAR	0	HEART RATE IRREGULAR	0	HLT_0765	0	HLGT_0140	0	INVESTIGATIONS	0	INVESTIGATIONS	0	MILD	N		POSSIBLE	RECOVERED/RESOLVED	N	N	N	N	N	N	N	TREATMENT	2/16/2013	1/19/2013	1/19/2013	118	90	90
CDISCPILOT01	AE	01-708-1087	6	E06	HEART RATE IRREGULAR	HEARTBEATS IRREGULAR	0	HEART RATE IRREGULAR	0	HLT_0765	0	HLGT_0140	0	INVESTIGATIONS	0	INVESTIGATIONS	0	MILD	N		POSSIBLE	RECOVERED/RESOLVED	N	N	N	N	N	N	N	TREATMENT	4/10/2013	3/16/2013	3/16/2013	171	146	146
CDISCPILOT01	AE	01-708-1158	1	E05	AGITATION	AGITATION	0	AGITATION	0	HLT_0140	0	HLGT_0170	0	PSYCHIATRIC DISORDERS	0	PSYCHIATRIC DISORDERS	0	MILD	N		REMOTE	NOT RECOVERED/NOT RESOLVED	N	N	N	N	N	N	N	TREATMENT	2/26/2014	2/25/2014		19	18	0
CDISCPILOT01	AE	01-708-1158	2	E07	ERYTHEMA	ERYTHEMA	0	ERYTHEMA	0	HLT_0284	0	HLGT_0192	0	SKIN AND SUBCUTANEOUS TISSUE DISORDERS	0	SKIN AND SUBCUTANEOUS TISSUE DISORDERS	0	MILD	N		PROBABLE	RECOVERED/RESOLVED	N	N	N	N	N	N	N	TREATMENT	3/22/2014	3/22/2014	3/22/2014	43	43	43
CDISCPILOT01	AE	01-708-1178	9	E13	ALCOHOL USE	ALCOHOL USE	0	ALCOHOL USE	0	HLT_0138	0	HLGT_0182	0	SOCIAL CIRCUMSTANCES	0	SOCIAL CIRCUMSTANCES	0	MILD	N		NONE	RECOVERED/RESOLVED	N	N	N	N	N	N	N	TREATMENT	4/6/2014	3/24/2014	3/24/2014	99	86	86
CDISCPILOT01	AE	01-708-1178	5	E06	APPLICATION SITE PRURITUS	APPLICATION SITE ITCHING	0	APPLICATION SITE PRURITUS	0	HLT_0317	0	HLGT_0338	0	GENERAL DISORDERS AND ADMINISTRATION SITE CONDITIONS	0	GENERAL DISORDERS AND ADMINISTRATION SITE CONDITIONS	0	MILD	N		PROBABLE	RECOVERED/RESOLVED	N	N	N	N	N	N	N	TREATMENT	4/6/2014	3/9/2014	4/6/2014	99	71	99
CDISCPILOT01	AE	01-708-1178	7	E10	ATRIAL FIBRILLATION	ATRIAL FIBRILLATION	0	ATRIAL FIBRILLATION	0	HLT_0365	0	HLGT_0012	0	CARDIAC DISORDERS	0	CARDIAC DISORDERS	0	SEVERE	N		POSSIBLE	RECOVERED/RESOLVED	N	N	N	N	Y	N	N	TREATMENT	4/6/2014	3/24/2014	3/26/2014	99	86	88
CDISCPILOT01	AE	01-708-1178	8	E11	CYSTITIS	BLADDER INFECTION	0	CYSTITIS	0	HLT_0739	0	HLGT_0129	0	INFECTIONS AND INFESTATIONS	0	INFECTIONS AND INFESTATIONS	0	MILD	N		REMOTE	RECOVERED/RESOLVED	N	N	N	N	N	N	N	TREATMENT	4/6/2014	3/24/2014	3/28/2014	99	86	90
CDISCPILOT01	AE	01-708-1178	6	E09	DIZZINESS	LIGHT-HEADED	0	DIZZINESS	0	HLT_0619	0	HLGT_0751	0	NERVOUS SYSTEM DISORDERS	0	NERVOUS SYSTEM DISORDERS	0	SEVERE	N		POSSIBLE	RECOVERED/RESOLVED	N	N	N	N	Y	N	N	TREATMENT	4/6/2014	3/24/2014	3/26/2014	99	86	88
CDISCPILOT01	AE	01-708-1178	1	E03	FLANK PAIN	FLANK PAIN	0	FLANK PAIN	0	HLT_0484	0	HLGT_0543	0	MUSCULOSKELETAL AND CONNECTIVE TISSUE DISORDERS	0	MUSCULOSKELETAL AND CONNECTIVE TISSUE DISORDERS	0	MILD	N		NONE	NOT RECOVERED/NOT RESOLVED	N	N	N	N	N	N	N	SCREENING	12/19/2013	12/19/2013		-10	-10	0
CDISCPILOT01	AE	01-708-1178	2	E05	NASOPHARYNGITIS	COLD	0	NASOPHARYNGITIS	0	HLT_0036	0	HLGT_0709	0	INFECTIONS AND INFESTATIONS	0	INFECTIONS AND INFESTATIONS	0	MILD	N		NONE	RECOVERED/RESOLVED	N	N	N	N	N	N	N	TREATMENT	3/9/2014	3/1/2014	3/8/2014	71	63	70
CDISCPILOT01	AE	01-708-1178	4	E08	VENTRICULAR SEPTAL DEFECT	VENTRICULAR SEPTAL DEFECT	0	VENTRICULAR SEPTAL DEFECT	0	HLT_0589	0	HLGT_0747	0	"CONGENITAL, FAMILIAL AND GENETIC DISORDERS"	0	"CONGENITAL, FAMILIAL AND GENETIC DISORDERS"	0	MILD	N		NONE	NOT RECOVERED/NOT RESOLVED	N	N	N	N	N	N	N	TREATMENT	3/9/2014	3/9/2014		71	71	0
CDISCPILOT01	AE	01-708-1213	2	E03	ATRIAL FIBRILLATION	ATRIAL FIBRILLATION	0	ATRIAL FIBRILLATION	0	HLT_0365	0	HLGT_0012	0	CARDIAC DISORDERS	0	CARDIAC DISORDERS	0	MILD	N		POSSIBLE	RECOVERED/RESOLVED	N	N	N	N	N	N	N	TREATMENT	2/26/2013	2/22/2013	2/22/2013	18	14	14
CDISCPILOT01	AE	01-708-1216	4	E05	APPLICATION SITE ERYTHEMA	APPLICATION SITE REDNESS	0	APPLICATION SITE ERYTHEMA	0	HLT_0617	0	HLGT_0152	0	GENERAL DISORDERS AND ADMINISTRATION SITE CONDITIONS	0	GENERAL DISORDERS AND ADMINISTRATION SITE CONDITIONS	0	MILD	N		PROBABLE	RECOVERED/RESOLVED	N	N	N	N	N	N	N	TREATMENT	1/9/2013	11/6/2012	12/13/2012	78	14	51
CDISCPILOT01	AE	01-708-1216	1	E01	APPLICATION SITE PRURITUS	APPLICATION SITE ITCHING	0	APPLICATION SITE PRURITUS	0	HLT_0317	0	HLGT_0338	0	GENERAL DISORDERS AND ADMINISTRATION SITE CONDITIONS	0	GENERAL DISORDERS AND ADMINISTRATION SITE CONDITIONS	0	MILD	N		PROBABLE	NOT RECOVERED/NOT RESOLVED	N	N	N	N	N	N	N	TREATMENT	11/8/2012	11/6/2012		16	14	0
CDISCPILOT01	AE	01-708-1216	3	E02	APPLICATION SITE SWELLING	APPLICATION SITE SWELLING	0	APPLICATION SITE SWELLING	0	HLT_0105	0	HLGT_0236	0	GENERAL DISORDERS AND ADMINISTRATION SITE CONDITIONS	0	GENERAL DISORDERS AND ADMINISTRATION SITE CONDITIONS	0	MILD	N		PROBABLE	NOT RECOVERED/NOT RESOLVED	N	N	N	N	N	N	N	TREATMENT	11/22/2012	11/22/2012		30	30	0
CDISCPILOT01	AE	01-708-1253	5	E04	CONJUNCTIVITIS	CONJUNCTIVITIS	0	CONJUNCTIVITIS	0	HLT_0584	0	HLGT_0335	0	EYE DISORDERS	0	EYE DISORDERS	0	MILD	N		NONE	RECOVERED/RESOLVED	N	N	N	N	N	N	N	SCREENING	5/21/2013	5/6/2013	5/16/2013	15	-1	10
CDISCPILOT01	AE	01-708-1253	4	E03	COUGH	COUGH	0	COUGH	0	HLT_0701	0	HLGT_0280	0	"RESPIRATORY, THORACIC AND MEDIASTINAL DISORDERS"	0	"RESPIRATORY, THORACIC AND MEDIASTINAL DISORDERS"	0	MILD	N		NONE	RECOVERED/RESOLVED	N	N	N	N	N	N	N	SCREENING	5/21/2013	5/6/2013	5/16/2013	15	-1	10
CDISCPILOT01	AE	01-708-1253	8	E05	DIZZINESS	DIZZINESS	0	DIZZINESS	0	HLT_0619	0	HLGT_0751	0	NERVOUS SYSTEM DISORDERS	0	NERVOUS SYSTEM DISORDERS	0	MILD	N		POSSIBLE	RECOVERED/RESOLVED	N	N	N	N	N	N	N	TREATMENT	6/9/2013	6/7/2013	6/7/2013	34	32	32
CDISCPILOT01	AE	01-708-1253	6	E02	HEART RATE INCREASED	HEART RATE INCREASED	0	HEART RATE INCREASED	0	HLT_0646	0	HLGT_0673	0	INVESTIGATIONS	0	INVESTIGATIONS	0	MILD	N		POSSIBLE	RECOVERED/RESOLVED	N	N	N	N	N	N	N	TREATMENT	5/21/2013	5/7/2013	5/10/2013	15	1	4
CDISCPILOT01	AE	01-708-1272	4	E11	APPLICATION SITE DERMATITIS	APPLICATION SITE RASH	0	APPLICATION SITE DERMATITIS	0	HLT_0343	0	HLGT_0241	0	GENERAL DISORDERS AND ADMINISTRATION SITE CONDITIONS	0	GENERAL DISORDERS AND ADMINISTRATION SITE CONDITIONS	0	MILD	N		PROBABLE	RECOVERED/RESOLVED	N	N	N	N	N	N	N	TREATMENT	3/7/2013	2/27/2013	2/27/2013	30	22	22
CDISCPILOT01	AE	01-708-1272	8	E08	COUGH	COUGH	0	COUGH	0	HLT_0701	0	HLGT_0280	0	"RESPIRATORY, THORACIC AND MEDIASTINAL DISORDERS"	0	"RESPIRATORY, THORACIC AND MEDIASTINAL DISORDERS"	0	MILD	N		NONE	RECOVERED/RESOLVED	N	N	N	N	N	N	N	TREATMENT	3/9/2013	3/1/2013	3/7/2013	32	24	30
CDISCPILOT01	AE	01-708-1272	1	E12	DIARRHOEA	DIARRHEA	0	DIARRHOEA	0	HLT_0148	0	HLGT_0588	0	GASTROINTESTINAL DISORDERS	0	GASTROINTESTINAL DISORDERS	0	MILD	N		NONE	RECOVERED/RESOLVED	N	N	N	N	N	N	N	TREATMENT	2/21/2013	2/11/2013	2/11/2013	16	6	6
CDISCPILOT01	AE	01-708-1272	10	E10	HEADACHE	HEADACHE	0	HEADACHE	0	HLT_0064	0	HLGT_0344	0	NERVOUS SYSTEM DISORDERS	0	NERVOUS SYSTEM DISORDERS	0	MILD	N		NONE	RECOVERED/RESOLVED	N	N	N	N	N	N	N	TREATMENT	3/9/2013	3/7/2013	3/7/2013	32	30	30
CDISCPILOT01	AE	01-708-1272	11	E14	HOT FLUSH	HOT FLASHES	0	HOT FLUSH	0	HLT_0737	0	HLGT_0773	0	VASCULAR DISORDERS	0	VASCULAR DISORDERS	0	MILD	N		NONE	RECOVERED/RESOLVED	N	N	N	N	N	N	N	TREATMENT	3/20/2013	3/19/2013	3/19/2013	43	42	42
CDISCPILOT01	AE	01-708-1272	2	E13	MUSCLE SPASMS	LEG CRAMPS	0	MUSCLE SPASMS	0	HLT_0078	0	HLGT_0750	0	MUSCULOSKELETAL AND CONNECTIVE TISSUE DISORDERS	0	MUSCULOSKELETAL AND CONNECTIVE TISSUE DISORDERS	0	SEVERE	N		NONE	RECOVERED/RESOLVED	N	N	N	N	N	N	N	TREATMENT	2/21/2013	2/18/2013	2/18/2013	16	13	13
CDISCPILOT01	AE	01-708-1272	9	E09	NASOPHARYNGITIS	COLD	0	NASOPHARYNGITIS	0	HLT_0036	0	HLGT_0709	0	INFECTIONS AND INFESTATIONS	0	INFECTIONS AND INFESTATIONS	0	MILD	N		NONE	RECOVERED/RESOLVED	N	N	N	N	N	N	N	TREATMENT	3/9/2013	3/1/2013	3/7/2013	32	24	30
CDISCPILOT01	AE	01-708-1272	12	E05	VENTRICULAR EXTRASYSTOLES	VENTRICULAR BIGEMINY	0	VENTRICULAR EXTRASYSTOLES	0	HLT_0050	0	HLGT_0594	0	CARDIAC DISORDERS	0	CARDIAC DISORDERS	0	MILD	N		REMOTE	RECOVERED/RESOLVED	N	N	N	N	N	N	N	TREATMENT	4/4/2013	2/21/2013	3/20/2013	58	16	43
CDISCPILOT01	AE	01-708-1286	3	E08	ABDOMINAL PAIN	ABDOMINAL PAIN	0	ABDOMINAL PAIN	0	HLT_0217	0	HLGT_0419	0	GASTROINTESTINAL DISORDERS	0	GASTROINTESTINAL DISORDERS	0	MILD	N		REMOTE	RECOVERED/RESOLVED	N	N	N	N	N	N	N	TREATMENT	2/23/2014	2/18/2014	2/18/2014	167	162	162
CDISCPILOT01	AE	01-708-1286	1	E06	APPLICATION SITE PRURITUS	APPLICATION SITE ITCHING	0	APPLICATION SITE PRURITUS	0	HLT_0317	0	HLGT_0338	0	GENERAL DISORDERS AND ADMINISTRATION SITE CONDITIONS	0	GENERAL DISORDERS AND ADMINISTRATION SITE CONDITIONS	0	MILD	N		PROBABLE	NOT RECOVERED/NOT RESOLVED	N	N	N	N	N	N	N	TREATMENT	9/23/2013	9/12/2013		14	3	0
CDISCPILOT01	AE	01-708-1286	4	E09	CONSTIPATION	CONSTIPATION	0	CONSTIPATION	0	HLT_0402	0	HLGT_0635	0	GASTROINTESTINAL DISORDERS	0	GASTROINTESTINAL DISORDERS	0	MILD	N		REMOTE	RECOVERED/RESOLVED	N	N	N	N	N	N	N	TREATMENT	2/23/2014	2/18/2014	2/18/2014	167	162	162
CDISCPILOT01	AE	01-708-1286	2	E04	MYOCARDIAL INFARCTION	INFERIOR MYOCARDIAL INFARCTION	0	MYOCARDIAL INFARCTION	0	HLT_0649	0	HLGT_0688	0	CARDIAC DISORDERS	0	CARDIAC DISORDERS	0	MILD	N		REMOTE	NOT RECOVERED/NOT RESOLVED	N	N	N	N	N	N	N	TREATMENT	9/23/2013	9/23/2013		14	14	0
CDISCPILOT01	AE	01-708-1296	4	E04	APPLICATION SITE PRURITUS	APPLICATION SITE ITCHING	0	APPLICATION SITE PRURITUS	0	HLT_0317	0	HLGT_0338	0	GENERAL DISORDERS AND ADMINISTRATION SITE CONDITIONS	0	GENERAL DISORDERS AND ADMINISTRATION SITE CONDITIONS	0	MILD	N		PROBABLE	RECOVERED/RESOLVED	N	N	N	N	N	N	N	TREATMENT	10/2/2013	9/4/2013	9/18/2013	111	83	97
CDISCPILOT01	AE	01-708-1296	6	E05	APPLICATION SITE VESICLES	APPLICATION SITE BLISTER	0	APPLICATION SITE VESICLES	0	HLT_0180	0	HLGT_0576	0	GENERAL DISORDERS AND ADMINISTRATION SITE CONDITIONS	0	GENERAL DISORDERS AND ADMINISTRATION SITE CONDITIONS	0	MILD	N		PROBABLE	RECOVERED/RESOLVED	N	N	N	N	N	N	N	TREATMENT	11/27/2013	10/4/2013	10/30/2013	167	113	139
CDISCPILOT01	AE	01-708-1296	2	E03	ATRIAL HYPERTROPHY	LEFT ATRIAL HYPERTROPHY	0	ATRIAL HYPERTROPHY	0	HLT_0271	0	HLGT_0067	0	CARDIAC DISORDERS	0	CARDIAC DISORDERS	0	MILD	N		REMOTE	RECOVERED/RESOLVED	N	N	N	N	N	N	N	TREATMENT	7/10/2013	6/27/2013	6/27/2013	27	14	14
CDISCPILOT01	AE	01-708-1296	7	E07	PAIN IN EXTREMITY	PAIN IN THIGH	0	PAIN IN EXTREMITY	0	HLT_0213	0	HLGT_0764	0	MUSCULOSKELETAL AND CONNECTIVE TISSUE DISORDERS	0	MUSCULOSKELETAL AND CONNECTIVE TISSUE DISORDERS	0	MILD	N		REMOTE	RECOVERED/RESOLVED	N	N	N	N	N	N	N	TREATMENT	12/12/2013	12/7/2013	12/7/2013	182	177	177
CDISCPILOT01	AE	01-708-1297	1	E02	APPLICATION SITE PRURITUS	APPLICATION SITE ITCHING	0	APPLICATION SITE PRURITUS	0	HLT_0317	0	HLGT_0338	0	GENERAL DISORDERS AND ADMINISTRATION SITE CONDITIONS	0	GENERAL DISORDERS AND ADMINISTRATION SITE CONDITIONS	0	MILD	N		PROBABLE	NOT RECOVERED/NOT RESOLVED	N	N	N	N	N	N	N	TREATMENT	4/16/2013	4/2/2013		82	68	0
CDISCPILOT01	AE	01-708-1297	2	E03	APPLICATION SITE SWELLING	APPLICATION SITE SWELLING	0	APPLICATION SITE SWELLING	0	HLT_0105	0	HLGT_0236	0	GENERAL DISORDERS AND ADMINISTRATION SITE CONDITIONS	0	GENERAL DISORDERS AND ADMINISTRATION SITE CONDITIONS	0	MILD	N		PROBABLE	NOT RECOVERED/NOT RESOLVED	N	N	N	N	N	N	N	TREATMENT	4/16/2013	4/2/2013		82	68	0
CDISCPILOT01	AE	01-708-1297	3	E04	SINUS BRADYCARDIA	SINUS BRADYCARDIA	0	SINUS BRADYCARDIA	0	HLT_0644	0	HLGT_0500	0	CARDIAC DISORDERS	0	CARDIAC DISORDERS	0	MILD	N		REMOTE	NOT RECOVERED/NOT RESOLVED	N	N	N	N	N	N	N	TREATMENT	5/8/2013	5/8/2013		104	104	0
CDISCPILOT01	AE	01-708-1316	2	E04	APPLICATION SITE ERYTHEMA	APPLICATION SITE REDNESS	0	APPLICATION SITE ERYTHEMA	0	HLT_0617	0	HLGT_0152	0	GENERAL DISORDERS AND ADMINISTRATION SITE CONDITIONS	0	GENERAL DISORDERS AND ADMINISTRATION SITE CONDITIONS	0	MILD	N		PROBABLE	NOT RECOVERED/NOT RESOLVED	N	N	N	N	N	N	N	TREATMENT	2/15/2014	2/15/2014		177	177	0
CDISCPILOT01	AE	01-708-1316	1	E05	HEADACHE	HEADACHE	0	HEADACHE	0	HLT_0064	0	HLGT_0344	0	NERVOUS SYSTEM DISORDERS	0	NERVOUS SYSTEM DISORDERS	0	MILD	N		POSSIBLE	NOT RECOVERED/NOT RESOLVED	N	N	N	N	N	N	N	TREATMENT	2/15/2014	1/29/2014		177	160	0
CDISCPILOT01	AE	01-708-1336	7	E11	APPLICATION SITE ERYTHEMA	APPLICATION SITE REDNESS	0	APPLICATION SITE ERYTHEMA	0	HLT_0617	0	HLGT_0152	0	GENERAL DISORDERS AND ADMINISTRATION SITE CONDITIONS	0	GENERAL DISORDERS AND ADMINISTRATION SITE CONDITIONS	0	MILD	N		PROBABLE	RECOVERED/RESOLVED	N	N	N	N	N	N	N	TREATMENT	7/5/2013	4/10/2013	6/5/2013	211	125	181
CDISCPILOT01	AE	01-708-1336	2	E08	APPLICATION SITE PRURITUS	APPLICATION SITE ITCHING	0	APPLICATION SITE PRURITUS	0	HLT_0317	0	HLGT_0338	0	GENERAL DISORDERS AND ADMINISTRATION SITE CONDITIONS	0	GENERAL DISORDERS AND ADMINISTRATION SITE CONDITIONS	0	MILD	N		PROBABLE	RECOVERED/RESOLVED	N	N	N	N	N	N	N	TREATMENT	1/15/2013	1/12/2013	1/12/2013	40	37	37
CDISCPILOT01	AE	01-708-1336	6	E10	APPLICATION SITE PRURITUS	APPLICATION SITE ITCHING	0	APPLICATION SITE PRURITUS	0	HLT_0317	0	HLGT_0338	0	GENERAL DISORDERS AND ADMINISTRATION SITE CONDITIONS	0	GENERAL DISORDERS AND ADMINISTRATION SITE CONDITIONS	0	MILD	N		PROBABLE	RECOVERED/RESOLVED	N	N	N	N	N	N	N	TREATMENT	7/5/2013	4/10/2013	6/5/2013	211	125	181
CDISCPILOT01	AE	01-708-1336	1	E06	DIZZINESS	LIGHTHEADEDNESS	0	DIZZINESS	0	HLT_0619	0	HLGT_0751	0	NERVOUS SYSTEM DISORDERS	0	NERVOUS SYSTEM DISORDERS	0	MILD	N		POSSIBLE	RECOVERED/RESOLVED	N	N	N	N	N	N	N	TREATMENT	12/21/2012	12/18/2012	12/18/2012	15	12	12
CDISCPILOT01	AE	01-708-1336	3	E09	DIZZINESS	LIGHT HEADEDNESS	0	DIZZINESS	0	HLT_0619	0	HLGT_0751	0	NERVOUS SYSTEM DISORDERS	0	NERVOUS SYSTEM DISORDERS	0	MILD	N		POSSIBLE	RECOVERED/RESOLVED	N	N	N	N	N	N	N	TREATMENT	2/27/2013	2/2/2013	2/2/2013	83	58	58
CDISCPILOT01	AE	01-708-1347	7	E04	APPLICATION SITE ERYTHEMA	APPLICATION SITE REDNESS	0	APPLICATION SITE ERYTHEMA	0	HLT_0617	0	HLGT_0152	0	GENERAL DISORDERS AND ADMINISTRATION SITE CONDITIONS	0	GENERAL DISORDERS AND ADMINISTRATION SITE CONDITIONS	0	MODERATE	N		PROBABLE	RECOVERED/RESOLVED	N	N	N	N	N	N	N	TREATMENT	8/2/2013	6/13/2013	6/25/2013	105	55	67
CDISCPILOT01	AE	01-708-1347	8	E05	APPLICATION SITE SWELLING	APPLICATION SITE SWELLING	0	APPLICATION SITE SWELLING	0	HLT_0105	0	HLGT_0236	0	GENERAL DISORDERS AND ADMINISTRATION SITE CONDITIONS	0	GENERAL DISORDERS AND ADMINISTRATION SITE CONDITIONS	0	MODERATE	N		PROBABLE	RECOVERED/RESOLVED	N	N	N	N	N	N	N	TREATMENT	8/2/2013	6/13/2013	6/25/2013	105	55	67
CDISCPILOT01	AE	01-708-1347	6	E03	ERYTHEMA	ERYTHEMA	0	ERYTHEMA	0	HLT_0284	0	HLGT_0192	0	SKIN AND SUBCUTANEOUS TISSUE DISORDERS	0	SKIN AND SUBCUTANEOUS TISSUE DISORDERS	0	MODERATE	N		PROBABLE	RECOVERED/RESOLVED	N	N	N	N	N	N	N	TREATMENT	8/2/2013	6/13/2013	6/25/2013	105	55	67
CDISCPILOT01	AE	01-708-1347	5	E02	PRURITUS	ITCHING	0	PRURITUS	0	HLT_0778	0	HLGT_0695	0	SKIN AND SUBCUTANEOUS TISSUE DISORDERS	0	SKIN AND SUBCUTANEOUS TISSUE DISORDERS	0	MILD	N		PROBABLE	RECOVERED/RESOLVED	N	N	N	N	N	N	N	TREATMENT	8/2/2013	6/13/2013	6/25/2013	105	55	67
CDISCPILOT01	AE	01-708-1348	3	E05	APPLICATION SITE PRURITUS	APPLICATION SITE ITCHING	0	APPLICATION SITE PRURITUS	0	HLT_0317	0	HLGT_0338	0	GENERAL DISORDERS AND ADMINISTRATION SITE CONDITIONS	0	GENERAL DISORDERS AND ADMINISTRATION SITE CONDITIONS	0	MILD	N		PROBABLE	NOT RECOVERED/NOT RESOLVED	N	N	N	N	N	N	N	TREATMENT	12/1/2013	12/1/2013		119	119	0
CDISCPILOT01	AE	01-708-1348	2	E04	MYOCARDIAL INFARCTION	ANTEROSEPTAL INFARCTION	0	MYOCARDIAL INFARCTION	0	HLT_0649	0	HLGT_0688	0	CARDIAC DISORDERS	0	CARDIAC DISORDERS	0	MILD	N		POSSIBLE	RECOVERED/RESOLVED	N	N	N	N	N	N	N	TREATMENT	9/2/2013	8/18/2013	8/31/2013	29	14	27
CDISCPILOT01	AE	01-708-1353	2	E09	DIZZINESS	DIZZINESS	0	DIZZINESS	0	HLT_0619	0	HLGT_0751	0	NERVOUS SYSTEM DISORDERS	0	NERVOUS SYSTEM DISORDERS	0	MILD	N		REMOTE	RECOVERED/RESOLVED	N	N	N	N	N	N	N	TREATMENT	9/10/2013	8/18/2013	9/10/2013	69	46	69
CDISCPILOT01	AE	01-708-1353	3	E10	HYPOTENSION	LOW BLOOD PRESSURE	0	HYPOTENSION	0	HLT_0761	0	HLGT_0412	0	VASCULAR DISORDERS	0	VASCULAR DISORDERS	0	MILD	N		POSSIBLE	RECOVERED/RESOLVED	N	N	N	N	N	N	N	TREATMENT	9/10/2013	8/28/2013	9/10/2013	69	56	69
CDISCPILOT01	AE	01-708-1372	1	E03	ATRIOVENTRICULAR BLOCK SECOND DEGREE	AV BLOCK SECOND DEGREE	0	ATRIOVENTRICULAR BLOCK SECOND DEGREE	0	HLT_0415	0	HLGT_0086	0	CARDIAC DISORDERS	0	CARDIAC DISORDERS	0	MODERATE	N		NONE	NOT RECOVERED/NOT RESOLVED	N	N	N	N	N	N	N	SCREENING	4/10/2013	4/10/2013		-2	-2	0
CDISCPILOT01	AE	01-708-1406	2	E04	OEDEMA PERIPHERAL	SWELLING OF LEGS	0	OEDEMA PERIPHERAL	0	HLT_0661	0	HLGT_0137	0	GENERAL DISORDERS AND ADMINISTRATION SITE CONDITIONS	0	GENERAL DISORDERS AND ADMINISTRATION SITE CONDITIONS	0	MILD	N		NONE	NOT RECOVERED/NOT RESOLVED	N	N	N	N	N	N	N	TREATMENT	6/16/2014	6/16/2014		173	173	0
CDISCPILOT01	AE	01-708-1428	3	E02	APPLICATION SITE ERYTHEMA	APPLICATION SITE REDNESS	0	APPLICATION SITE ERYTHEMA	0	HLT_0617	0	HLGT_0152	0	GENERAL DISORDERS AND ADMINISTRATION SITE CONDITIONS	0	GENERAL DISORDERS AND ADMINISTRATION SITE CONDITIONS	0	MODERATE	N		PROBABLE	NOT RECOVERED/NOT RESOLVED	N	N	N	N	N	N	N	TREATMENT	12/10/2013	12/10/2013	12/21/2013	32	32	43
CDISCPILOT01	AE	01-708-1428	6	E02	APPLICATION SITE ERYTHEMA	APPLICATION SITE REDNESS	0	APPLICATION SITE ERYTHEMA	0	HLT_0617	0	HLGT_0152	0	GENERAL DISORDERS AND ADMINISTRATION SITE CONDITIONS	0	GENERAL DISORDERS AND ADMINISTRATION SITE CONDITIONS	0	SEVERE	N		PROBABLE	RECOVERED/RESOLVED	N	N	N	N	N	N	N	TREATMENT	12/26/2013	12/10/2013	12/21/2013	48	32	43
CDISCPILOT01	AE	01-708-1428	2	E01	APPLICATION SITE PRURITUS	APPLICATION SITE ITCHING	0	APPLICATION SITE PRURITUS	0	HLT_0317	0	HLGT_0338	0	GENERAL DISORDERS AND ADMINISTRATION SITE CONDITIONS	0	GENERAL DISORDERS AND ADMINISTRATION SITE CONDITIONS	0	MODERATE	N		PROBABLE	NOT RECOVERED/NOT RESOLVED	N	N	N	N	N	N	N	TREATMENT	12/10/2013	12/10/2013	12/21/2013	32	32	43
CDISCPILOT01	AE	01-708-1428	5	E01	APPLICATION SITE PRURITUS	APPLICATION SITE ITCHING	0	APPLICATION SITE PRURITUS	0	HLT_0317	0	HLGT_0338	0	GENERAL DISORDERS AND ADMINISTRATION SITE CONDITIONS	0	GENERAL DISORDERS AND ADMINISTRATION SITE CONDITIONS	0	SEVERE	N		PROBABLE	RECOVERED/RESOLVED	N	N	N	N	N	N	N	TREATMENT	12/26/2013	12/10/2013	12/21/2013	48	32	43
CDISCPILOT01	AE	01-708-1428	4	E03	APPLICATION SITE WARMTH	APPLICATION SITE WARMTH	0	APPLICATION SITE WARMTH	0	HLT_0260	0	HLGT_0301	0	GENERAL DISORDERS AND ADMINISTRATION SITE CONDITIONS	0	GENERAL DISORDERS AND ADMINISTRATION SITE CONDITIONS	0	MODERATE	N		PROBABLE	NOT RECOVERED/NOT RESOLVED	N	N	N	N	N	N	N	TREATMENT	12/10/2013	12/10/2013	12/21/2013	32	32	43
CDISCPILOT01	AE	01-708-1428	7	E03	APPLICATION SITE WARMTH	APPLICATION SITE WARMTH	0	APPLICATION SITE WARMTH	0	HLT_0260	0	HLGT_0301	0	GENERAL DISORDERS AND ADMINISTRATION SITE CONDITIONS	0	GENERAL DISORDERS AND ADMINISTRATION SITE CONDITIONS	0	SEVERE	N		PROBABLE	RECOVERED/RESOLVED	N	N	N	N	N	N	N	TREATMENT	12/26/2013	12/10/2013	12/21/2013	48	32	43
CDISCPILOT01	AE	01-708-1428	1	E04	EPISTAXIS	NOSE BLEED	0	EPISTAXIS	0	HLT_0386	0	HLGT_0577	0	"RESPIRATORY, THORACIC AND MEDIASTINAL DISORDERS"	0	"RESPIRATORY, THORACIC AND MEDIASTINAL DISORDERS"	0	MILD	N		REMOTE	RECOVERED/RESOLVED	N	N	N	N	N	N	N	TREATMENT	11/23/2013	11/22/2013	11/22/2013	15	14	14
CDISCPILOT01	AE	01-709-1007	2	E02	APPLICATION SITE DERMATITIS	APPLICATION SITE RASH	0	APPLICATION SITE DERMATITIS	0	HLT_0343	0	HLGT_0241	0	GENERAL DISORDERS AND ADMINISTRATION SITE CONDITIONS	0	GENERAL DISORDERS AND ADMINISTRATION SITE CONDITIONS	0	MILD	N		PROBABLE	RECOVERED/RESOLVED	N	N	N	N	N	N	N	TREATMENT	9/1/2012	8/16/2012	8/19/2012	33	17	20
CDISCPILOT01	AE	01-709-1007	3	E03	APPLICATION SITE DERMATITIS	APPLICATION SITE RASH	0	APPLICATION SITE DERMATITIS	0	HLT_0343	0	HLGT_0241	0	GENERAL DISORDERS AND ADMINISTRATION SITE CONDITIONS	0	GENERAL DISORDERS AND ADMINISTRATION SITE CONDITIONS	0	SEVERE	N		PROBABLE	NOT RECOVERED/NOT RESOLVED	N	N	N	N	N	N	N	TREATMENT	9/1/2012	8/21/2012		33	22	0
CDISCPILOT01	AE	01-709-1007	4	E04	DIARRHOEA	DIARRHEA	0	DIARRHOEA	0	HLT_0148	0	HLGT_0588	0	GASTROINTESTINAL DISORDERS	0	GASTROINTESTINAL DISORDERS	0	MILD	N		POSSIBLE	RECOVERED/RESOLVED	N	N	N	N	N	N	N	TREATMENT	9/1/2012	8/30/2012	8/30/2012	33	31	31
CDISCPILOT01	AE	01-709-1020	3	E03	ABDOMINAL PAIN	ABDOMINAL PAIN	0	ABDOMINAL PAIN	0	HLT_0217	0	HLGT_0419	0	GASTROINTESTINAL DISORDERS	0	GASTROINTESTINAL DISORDERS	0	MILD	N		POSSIBLE	RECOVERED/RESOLVED	N	N	N	N	N	N	N	TREATMENT	1/12/2013	1/3/2013	1/11/2013	43	34	42
CDISCPILOT01	AE	01-709-1020	1	E01	APPLICATION SITE DERMATITIS	APPLICATION SITE RASH	0	APPLICATION SITE DERMATITIS	0	HLT_0343	0	HLGT_0241	0	GENERAL DISORDERS AND ADMINISTRATION SITE CONDITIONS	0	GENERAL DISORDERS AND ADMINISTRATION SITE CONDITIONS	0	MILD	N		PROBABLE	NOT RECOVERED/NOT RESOLVED	N	N	N	N	N	N	N	TREATMENT	12/27/2012	12/27/2012		27	27	0
CDISCPILOT01	AE	01-709-1020	4	E04	APPLICATION SITE PRURITUS	APPLICATION SITE ITCHING	0	APPLICATION SITE PRURITUS	0	HLT_0317	0	HLGT_0338	0	GENERAL DISORDERS AND ADMINISTRATION SITE CONDITIONS	0	GENERAL DISORDERS AND ADMINISTRATION SITE CONDITIONS	0	MILD	N		PROBABLE	NOT RECOVERED/NOT RESOLVED	N	N	N	N	N	N	N	TREATMENT	1/26/2013	1/15/2013		57	46	0
CDISCPILOT01	AE	01-709-1020	2	E02	DIARRHOEA	DIARRHEA	0	DIARRHOEA	0	HLT_0148	0	HLGT_0588	0	GASTROINTESTINAL DISORDERS	0	GASTROINTESTINAL DISORDERS	0	MILD	N		POSSIBLE	RECOVERED/RESOLVED	N	N	N	N	N	N	N	TREATMENT	1/12/2013	1/3/2013	1/11/2013	43	34	42
CDISCPILOT01	AE	01-709-1029	2	E08	APPLICATION SITE ERYTHEMA	APPLICATION SITE REDNESS	0	APPLICATION SITE ERYTHEMA	0	HLT_0617	0	HLGT_0152	0	GENERAL DISORDERS AND ADMINISTRATION SITE CONDITIONS	0	GENERAL DISORDERS AND ADMINISTRATION SITE CONDITIONS	0	MILD	N		PROBABLE	NOT RECOVERED/NOT RESOLVED	N	N	N	N	N	N	N	TREATMENT	1/21/2013	1/17/2013		28	24	0
CDISCPILOT01	AE	01-709-1029	13	E11	COUGH	COUGH	0	COUGH	0	HLT_0701	0	HLGT_0280	0	"RESPIRATORY, THORACIC AND MEDIASTINAL DISORDERS"	0	"RESPIRATORY, THORACIC AND MEDIASTINAL DISORDERS"	0	MILD	N		NONE	RECOVERED/RESOLVED	N	N	N	N	N	N	N	TREATMENT	6/12/2013	5/12/2013	5/19/2013	170	139	146
CDISCPILOT01	AE	01-709-1029	5	E07	MUSCLE SPASMS	CRAMP	0	MUSCLE SPASMS	0	HLT_0078	0	HLGT_0750	0	MUSCULOSKELETAL AND CONNECTIVE TISSUE DISORDERS	0	MUSCULOSKELETAL AND CONNECTIVE TISSUE DISORDERS	0	MILD	N		REMOTE	RECOVERED/RESOLVED	N	N	N	N	N	N	N	TREATMENT	3/20/2013	1/24/2013	2/27/2013	86	31	65
CDISCPILOT01	AE	01-709-1029	4	E09	MYOCARDIAL INFARCTION	SEPTAL MYOCARDIAL INFARCTION	0	MYOCARDIAL INFARCTION	0	HLT_0649	0	HLGT_0688	0	CARDIAC DISORDERS	0	CARDIAC DISORDERS	0	MILD	N		NONE	RECOVERED/RESOLVED	N	N	N	N	N	N	N	TREATMENT	3/20/2013	1/9/2013	2/19/2013	86	16	57
CDISCPILOT01	AE	01-709-1029	8	E10	MYOCARDIAL INFARCTION	SEPTAL MYOCARDIAL INFARCTION	0	MYOCARDIAL INFARCTION	0	HLT_0649	0	HLGT_0688	0	CARDIAC DISORDERS	0	CARDIAC DISORDERS	0	MILD	N		NONE	RECOVERED/RESOLVED	N	N	N	N	N	N	N	TREATMENT	5/15/2013	3/20/2013	4/16/2013	142	86	113
CDISCPILOT01	AE	01-709-1029	12	E13	MYOCARDIAL INFARCTION	SEPTAL MYOCARDIAL INFARCTION	0	MYOCARDIAL INFARCTION	0	HLT_0649	0	HLGT_0688	0	CARDIAC DISORDERS	0	CARDIAC DISORDERS	0	MILD	N		REMOTE	NOT RECOVERED/NOT RESOLVED	N	N	N	N	N	N	N	TREATMENT	5/15/2013	5/15/2013		142	142	0
CDISCPILOT01	AE	01-709-1029	14	E12	PHARYNGEAL ERYTHEMA	RED THROAT	0	PHARYNGEAL ERYTHEMA	0	HLT_0591	0	HLGT_0398	0	"RESPIRATORY, THORACIC AND MEDIASTINAL DISORDERS"	0	"RESPIRATORY, THORACIC AND MEDIASTINAL DISORDERS"	0	MILD	N		NONE	RECOVERED/RESOLVED	N	N	N	N	N	N	N	TREATMENT	6/12/2013	5/12/2013	5/19/2013	170	139	146
CDISCPILOT01	AE	01-709-1029	16	E14	PRURITUS	ITCHING	0	PRURITUS	0	HLT_0778	0	HLGT_0695	0	SKIN AND SUBCUTANEOUS TISSUE DISORDERS	0	SKIN AND SUBCUTANEOUS TISSUE DISORDERS	0	MILD	N		PROBABLE	NOT RECOVERED/NOT RESOLVED	N	N	N	N	N	N	N	TREATMENT	6/26/2013	6/19/2013		184	177	0
CDISCPILOT01	AE	01-709-1029	9	E15	SINUS BRADYCARDIA	SINUS BRADYCARDIA	0	SINUS BRADYCARDIA	0	HLT_0644	0	HLGT_0500	0	CARDIAC DISORDERS	0	CARDIAC DISORDERS	0	MILD	N		REMOTE	RECOVERED/RESOLVED	N	N	N	N	N	N	N	TREATMENT	5/15/2013	3/20/2013	4/16/2013	142	86	113
CDISCPILOT01	AE	01-709-1029	15	E16	SINUS BRADYCARDIA	SINUS BRADYCARDIA	0	SINUS BRADYCARDIA	0	HLT_0644	0	HLGT_0500	0	CARDIAC DISORDERS	0	CARDIAC DISORDERS	0	MILD	N		REMOTE	NOT RECOVERED/NOT RESOLVED	N	N	N	N	N	N	N	TREATMENT	6/12/2013	6/12/2013		170	170	0
CDISCPILOT01	AE	01-709-1081	2	E06	OEDEMA PERIPHERAL	PERIPHERAL SWELLING	0	OEDEMA PERIPHERAL	0	HLT_0661	0	HLGT_0137	0	GENERAL DISORDERS AND ADMINISTRATION SITE CONDITIONS	0	GENERAL DISORDERS AND ADMINISTRATION SITE CONDITIONS	0	MODERATE	N		REMOTE	NOT RECOVERED/NOT RESOLVED	N	N	N	N	N	N	N	TREATMENT	5/10/2014	5/1/2014		113	104	0
CDISCPILOT01	AE	01-709-1081	1	E05	RASH	RASH	0	RASH	0	HLT_0762	0	HLGT_0198	0	SKIN AND SUBCUTANEOUS TISSUE DISORDERS	0	SKIN AND SUBCUTANEOUS TISSUE DISORDERS	0	MODERATE	N		PROBABLE	NOT RECOVERED/NOT RESOLVED	N	N	N	N	N	N	N	TREATMENT	4/21/2014	4/7/2014		94	80	0
CDISCPILOT01	AE	01-709-1088	1	E02	APPLICATION SITE DERMATITIS	APPLICATION SITE RASH	0	APPLICATION SITE DERMATITIS	0	HLT_0343	0	HLGT_0241	0	GENERAL DISORDERS AND ADMINISTRATION SITE CONDITIONS	0	GENERAL DISORDERS AND ADMINISTRATION SITE CONDITIONS	0	MILD	N		PROBABLE	NOT RECOVERED/NOT RESOLVED	N	N	N	N	N	N	N	TREATMENT	5/8/2014	5/8/2014		27	27	0
CDISCPILOT01	AE	01-709-1088	2	E04	RASH	RASH	0	RASH	0	HLT_0762	0	HLGT_0198	0	SKIN AND SUBCUTANEOUS TISSUE DISORDERS	0	SKIN AND SUBCUTANEOUS TISSUE DISORDERS	0	MILD	N		NONE	NOT RECOVERED/NOT RESOLVED	N	N	N	N	N	N	N	TREATMENT	8/2/2014	8/2/2014		113	113	0
CDISCPILOT01	AE	01-709-1099	8	E06	ACROCHORDON EXCISION	SKIN TAG REMOVAL	0	ACROCHORDON EXCISION	0	HLT_0629	0	HLGT_0103	0	SURGICAL AND MEDICAL PROCEDURES	0	SURGICAL AND MEDICAL PROCEDURES	0	MILD	N		NONE	RECOVERED/RESOLVED	N	N	N	N	N	N	N	TREATMENT	4/11/2014	3/23/2014	3/23/2014	169	150	150
CDISCPILOT01	AE	01-709-1099	2	E02	APPLICATION SITE DERMATITIS	APPLICATION SITE RASH	0	APPLICATION SITE DERMATITIS	0	HLT_0343	0	HLGT_0241	0	GENERAL DISORDERS AND ADMINISTRATION SITE CONDITIONS	0	GENERAL DISORDERS AND ADMINISTRATION SITE CONDITIONS	0	MILD	N		PROBABLE	NOT RECOVERED/NOT RESOLVED	N	N	N	N	N	N	N	TREATMENT	11/12/2013	11/12/2013		19	19	0
CDISCPILOT01	AE	01-709-1099	6	E02	APPLICATION SITE DERMATITIS	APPLICATION SITE RASH	0	APPLICATION SITE DERMATITIS	0	HLT_0343	0	HLGT_0241	0	GENERAL DISORDERS AND ADMINISTRATION SITE CONDITIONS	0	GENERAL DISORDERS AND ADMINISTRATION SITE CONDITIONS	0	MODERATE	N		PROBABLE	NOT RECOVERED/NOT RESOLVED	N	N	N	N	N	N	N	TREATMENT	12/26/2013	11/12/2013		63	19	0
CDISCPILOT01	AE	01-709-1099	4	E05	APPLICATION SITE PRURITUS	APPLICATION SITE ITCHING	0	APPLICATION SITE PRURITUS	0	HLT_0317	0	HLGT_0338	0	GENERAL DISORDERS AND ADMINISTRATION SITE CONDITIONS	0	GENERAL DISORDERS AND ADMINISTRATION SITE CONDITIONS	0	MILD	N		PROBABLE	NOT RECOVERED/NOT RESOLVED	N	N	N	N	N	N	N	TREATMENT	11/12/2013	11/12/2013		19	19	0
CDISCPILOT01	AE	01-709-1099	7	E05	APPLICATION SITE PRURITUS	APPLICATION SITE ITCHING	0	APPLICATION SITE PRURITUS	0	HLT_0317	0	HLGT_0338	0	GENERAL DISORDERS AND ADMINISTRATION SITE CONDITIONS	0	GENERAL DISORDERS AND ADMINISTRATION SITE CONDITIONS	0	MODERATE	N		PROBABLE	NOT RECOVERED/NOT RESOLVED	N	N	N	N	N	N	N	TREATMENT	12/26/2013	11/12/2013		63	19	0
CDISCPILOT01	AE	01-709-1099	3	E04	APPLICATION SITE VESICLES	APPLICATION SITE VESICLES	0	APPLICATION SITE VESICLES	0	HLT_0180	0	HLGT_0576	0	GENERAL DISORDERS AND ADMINISTRATION SITE CONDITIONS	0	GENERAL DISORDERS AND ADMINISTRATION SITE CONDITIONS	0	MILD	N		PROBABLE	NOT RECOVERED/NOT RESOLVED	N	N	N	N	N	N	N	TREATMENT	11/12/2013	11/12/2013		19	19	0
CDISCPILOT01	AE	01-709-1099	5	E01	NASOPHARYNGITIS	COLD SYMPTOMS	0	NASOPHARYNGITIS	0	HLT_0036	0	HLGT_0709	0	INFECTIONS AND INFESTATIONS	0	INFECTIONS AND INFESTATIONS	0	MILD	N		NONE	RECOVERED/RESOLVED	N	N	N	N	N	N	N	TREATMENT	11/27/2013	11/6/2013	11/17/2013	34	13	24
CDISCPILOT01	AE	01-709-1102	1	E01	APPLICATION SITE DERMATITIS	APPLICATION SITE RASH	0	APPLICATION SITE DERMATITIS	0	HLT_0343	0	HLGT_0241	0	GENERAL DISORDERS AND ADMINISTRATION SITE CONDITIONS	0	GENERAL DISORDERS AND ADMINISTRATION SITE CONDITIONS	0	MILD	N		PROBABLE	NOT RECOVERED/NOT RESOLVED	N	N	N	N	N	N	N	TREATMENT	2/11/2013	2/11/2013		28	28	0
CDISCPILOT01	AE	01-709-1102	3	E01	APPLICATION SITE DERMATITIS	APPLICATION SITE RASH	0	APPLICATION SITE DERMATITIS	0	HLT_0343	0	HLGT_0241	0	GENERAL DISORDERS AND ADMINISTRATION SITE CONDITIONS	0	GENERAL DISORDERS AND ADMINISTRATION SITE CONDITIONS	0	MODERATE	N		PROBABLE	NOT RECOVERED/NOT RESOLVED	N	N	N	N	N	N	N	TREATMENT	3/12/2013	2/11/2013		57	28	0
CDISCPILOT01	AE	01-709-1102	2	E02	APPLICATION SITE PRURITUS	APPLICATION SITE ITCHING	0	APPLICATION SITE PRURITUS	0	HLT_0317	0	HLGT_0338	0	GENERAL DISORDERS AND ADMINISTRATION SITE CONDITIONS	0	GENERAL DISORDERS AND ADMINISTRATION SITE CONDITIONS	0	MILD	N		PROBABLE	NOT RECOVERED/NOT RESOLVED	N	N	N	N	N	N	N	TREATMENT	2/11/2013	2/11/2013		28	28	0
CDISCPILOT01	AE	01-709-1102	4	E02	APPLICATION SITE PRURITUS	APPLICATION SITE ITCHING	0	APPLICATION SITE PRURITUS	0	HLT_0317	0	HLGT_0338	0	GENERAL DISORDERS AND ADMINISTRATION SITE CONDITIONS	0	GENERAL DISORDERS AND ADMINISTRATION SITE CONDITIONS	0	MODERATE	N		PROBABLE	NOT RECOVERED/NOT RESOLVED	N	N	N	N	N	N	N	TREATMENT	3/12/2013	2/11/2013		57	28	0
CDISCPILOT01	AE	01-709-1102	6	E04	APPLICATION SITE VESICLES	APPLICATION SITE BLISTER	0	APPLICATION SITE VESICLES	0	HLT_0180	0	HLGT_0576	0	GENERAL DISORDERS AND ADMINISTRATION SITE CONDITIONS	0	GENERAL DISORDERS AND ADMINISTRATION SITE CONDITIONS	0	MILD	N		PROBABLE	RECOVERED/RESOLVED	N	N	N	N	N	N	N	TREATMENT	3/31/2013	3/26/2013	3/27/2013	76	71	72
CDISCPILOT01	AE	01-709-1102	5	E05	DIZZINESS	DIZZINESS	0	DIZZINESS	0	HLT_0619	0	HLGT_0751	0	NERVOUS SYSTEM DISORDERS	0	NERVOUS SYSTEM DISORDERS	0	MILD	N		POSSIBLE	RECOVERED/RESOLVED	N	N	N	N	N	N	N	TREATMENT	3/31/2013	3/20/2013	3/26/2013	76	65	71
CDISCPILOT01	AE	01-709-1168	5	E03	PRURITUS	ITCHY	0	PRURITUS	0	HLT_0778	0	HLGT_0695	0	SKIN AND SUBCUTANEOUS TISSUE DISORDERS	0	SKIN AND SUBCUTANEOUS TISSUE DISORDERS	0	MODERATE	N		PROBABLE	RECOVERED/RESOLVED	N	N	N	N	N	N	N	TREATMENT	11/1/2013	9/6/2013	10/11/2013	92	36	71
CDISCPILOT01	AE	01-709-1168	6	E04	RASH	RASH	0	RASH	0	HLT_0762	0	HLGT_0198	0	SKIN AND SUBCUTANEOUS TISSUE DISORDERS	0	SKIN AND SUBCUTANEOUS TISSUE DISORDERS	0	MODERATE	N		PROBABLE	RECOVERED/RESOLVED	N	N	N	N	N	N	N	TREATMENT	11/1/2013	9/6/2013	10/11/2013	92	36	71
CDISCPILOT01	AE	01-709-1168	2	E02	SKIN IRRITATION	IRRITATION SKIN	0	SKIN IRRITATION	0	HLT_0583	0	HLGT_0384	0	SKIN AND SUBCUTANEOUS TISSUE DISORDERS	0	SKIN AND SUBCUTANEOUS TISSUE DISORDERS	0	MILD	N		PROBABLE	RECOVERED/RESOLVED	N	N	N	N	N	N	N	TREATMENT	9/13/2013	8/17/2013	9/6/2013	43	16	36
CDISCPILOT01	AE	01-709-1217	3	E05	APPLICATION SITE DERMATITIS	APPLICATION SITE RASH	0	APPLICATION SITE DERMATITIS	0	HLT_0343	0	HLGT_0241	0	GENERAL DISORDERS AND ADMINISTRATION SITE CONDITIONS	0	GENERAL DISORDERS AND ADMINISTRATION SITE CONDITIONS	0	MILD	N		PROBABLE	NOT RECOVERED/NOT RESOLVED	N	N	N	N	N	N	N	TREATMENT	3/30/2013	3/26/2013	6/18/2013	27	23	107
CDISCPILOT01	AE	01-709-1217	10	E05	APPLICATION SITE DERMATITIS	APPLICATION SITE RASH	0	APPLICATION SITE DERMATITIS	0	HLT_0343	0	HLGT_0241	0	GENERAL DISORDERS AND ADMINISTRATION SITE CONDITIONS	0	GENERAL DISORDERS AND ADMINISTRATION SITE CONDITIONS	0	MODERATE	N		PROBABLE	RECOVERED/RESOLVED	N	N	N	N	N	N	N	TREATMENT	6/25/2013	3/26/2013	6/18/2013	114	23	107
CDISCPILOT01	AE	01-709-1217	2	E06	COUGH	COUGH	0	COUGH	0	HLT_0701	0	HLGT_0280	0	"RESPIRATORY, THORACIC AND MEDIASTINAL DISORDERS"	0	"RESPIRATORY, THORACIC AND MEDIASTINAL DISORDERS"	0	MILD	N		NONE	NOT RECOVERED/NOT RESOLVED	N	N	N	N	N	N	N	TREATMENT	3/30/2013	3/20/2013		27	17	0
CDISCPILOT01	AE	01-709-1217	1	E09	DIZZINESS	DIZZINESS	0	DIZZINESS	0	HLT_0619	0	HLGT_0751	0	NERVOUS SYSTEM DISORDERS	0	NERVOUS SYSTEM DISORDERS	0	MODERATE	N		POSSIBLE	RECOVERED/RESOLVED	N	N	N	N	N	N	N	TREATMENT	3/19/2013	3/6/2013	3/6/2013	16	3	3
CDISCPILOT01	AE	01-709-1217	4	E07	DIZZINESS	DIZZINESS	0	DIZZINESS	0	HLT_0619	0	HLGT_0751	0	NERVOUS SYSTEM DISORDERS	0	NERVOUS SYSTEM DISORDERS	0	MILD	N		POSSIBLE	RECOVERED/RESOLVED	N	N	N	N	N	N	N	TREATMENT	3/30/2013	3/27/2013	3/27/2013	27	24	24
CDISCPILOT01	AE	01-709-1217	7	E08	DIZZINESS	DIZZINESS	0	DIZZINESS	0	HLT_0619	0	HLGT_0751	0	NERVOUS SYSTEM DISORDERS	0	NERVOUS SYSTEM DISORDERS	0	MILD	N		POSSIBLE	RECOVERED/RESOLVED	N	N	N	N	N	N	N	TREATMENT	4/13/2013	4/1/2013	4/11/2013	41	29	39
CDISCPILOT01	AE	01-709-1217	5	E13	ELECTROCARDIOGRAM T WAVE INVERSION	T WAVE INVERTED	0	ELECTROCARDIOGRAM T WAVE INVERSION	0	HLT_0289	0	HLGT_0130	0	INVESTIGATIONS	0	INVESTIGATIONS	0	MILD	N		NONE	NOT RECOVERED/NOT RESOLVED	N	N	N	N	N	N	N	TREATMENT	3/30/2013	3/30/2013		27	27	0
CDISCPILOT01	AE	01-709-1217	9	E14	HEADACHE	HEADACHE	0	HEADACHE	0	HLT_0064	0	HLGT_0344	0	NERVOUS SYSTEM DISORDERS	0	NERVOUS SYSTEM DISORDERS	0	MILD	N		REMOTE	RECOVERED/RESOLVED	N	N	N	N	N	N	N	TREATMENT	5/25/2013	5/17/2013	5/18/2013	83	75	76
CDISCPILOT01	AE	01-709-1217	11	E10	PRURITUS	ITCHING	0	PRURITUS	0	HLT_0778	0	HLGT_0695	0	SKIN AND SUBCUTANEOUS TISSUE DISORDERS	0	SKIN AND SUBCUTANEOUS TISSUE DISORDERS	0	MODERATE	N		PROBABLE	RECOVERED/RESOLVED	N	N	N	N	N	N	N	TREATMENT	6/25/2013	5/27/2013	6/18/2013	114	85	107
CDISCPILOT01	AE	01-709-1238	2	E07	APPLICATION SITE DERMATITIS	APPLICATION SITE RASH	0	APPLICATION SITE DERMATITIS	0	HLT_0343	0	HLGT_0241	0	GENERAL DISORDERS AND ADMINISTRATION SITE CONDITIONS	0	GENERAL DISORDERS AND ADMINISTRATION SITE CONDITIONS	0	MODERATE	N		PROBABLE	NOT RECOVERED/NOT RESOLVED	N	N	N	N	N	N	N	TREATMENT	6/19/2013	5/30/2013		36	16	0
CDISCPILOT01	AE	01-709-1238	4	E09	APPLICATION SITE DISCHARGE	APPLICATION SITE DISCHARGE	0	APPLICATION SITE DISCHARGE	0	HLT_0200	0	HLGT_0457	0	GENERAL DISORDERS AND ADMINISTRATION SITE CONDITIONS	0	GENERAL DISORDERS AND ADMINISTRATION SITE CONDITIONS	0	MODERATE	N		PROBABLE	NOT RECOVERED/NOT RESOLVED	N	N	N	N	N	N	N	TREATMENT	6/19/2013	5/30/2013		36	16	0
CDISCPILOT01	AE	01-709-1238	3	E08	APPLICATION SITE PRURITUS	APPLICATION SITE ITCHING	0	APPLICATION SITE PRURITUS	0	HLT_0317	0	HLGT_0338	0	GENERAL DISORDERS AND ADMINISTRATION SITE CONDITIONS	0	GENERAL DISORDERS AND ADMINISTRATION SITE CONDITIONS	0	MODERATE	N		PROBABLE	NOT RECOVERED/NOT RESOLVED	N	N	N	N	N	N	N	TREATMENT	6/19/2013	5/30/2013		36	16	0
CDISCPILOT01	AE	01-709-1238	6	E04	COUGH	COUGH	0	COUGH	0	HLT_0701	0	HLGT_0280	0	"RESPIRATORY, THORACIC AND MEDIASTINAL DISORDERS"	0	"RESPIRATORY, THORACIC AND MEDIASTINAL DISORDERS"	0	MODERATE	N		NONE	NOT RECOVERED/NOT RESOLVED	N	N	N	N	N	N	N	TREATMENT	6/19/2013	6/9/2013		36	26	0
CDISCPILOT01	AE	01-709-1238	1	E02	DIARRHOEA	DIARRHEA	0	DIARRHOEA	0	HLT_0148	0	HLGT_0588	0	GASTROINTESTINAL DISORDERS	0	GASTROINTESTINAL DISORDERS	0	MODERATE	N		NONE	RECOVERED/RESOLVED	N	N	N	N	N	N	N	TREATMENT	5/29/2013	5/28/2013	5/28/2013	15	14	14
CDISCPILOT01	AE	01-709-1238	5	E05	HIP FRACTURE	HIP FRACTURE	0	HIP FRACTURE	0	HLT_0097	0	HLGT_0131	0	"INJURY, POISONING AND PROCEDURAL COMPLICATIONS"	0	"INJURY, POISONING AND PROCEDURAL COMPLICATIONS"	0	MODERATE	N		NONE	RECOVERED/RESOLVED	N	N	N	N	N	N	N	TREATMENT	6/19/2013	5/31/2013	5/31/2013	36	17	17
CDISCPILOT01	AE	01-709-1238	8	E10	SKIN LESION EXCISION	SKIN LESION EXCISION	0	SKIN LESION EXCISION	0	HLT_0498	0	HLGT_0450	0	SURGICAL AND MEDICAL PROCEDURES	0	SURGICAL AND MEDICAL PROCEDURES	0	MILD	N		NONE	RECOVERED/RESOLVED	N	N	N	N	N	N	N	TREATMENT	7/2/2013	6/28/2013	6/28/2013	49	45	45
CDISCPILOT01	AE	01-709-1238	7	E06	UPPER RESPIRATORY TRACT INFECTION	UPPER RESPIRATORY INFECTION	0	UPPER RESPIRATORY TRACT INFECTION	0	HLT_0520	0	HLGT_0489	0	INFECTIONS AND INFESTATIONS	0	INFECTIONS AND INFESTATIONS	0	MODERATE	N		NONE	NOT RECOVERED/NOT RESOLVED	N	N	N	N	N	N	N	TREATMENT	6/19/2013	6/9/2013		36	26	0
CDISCPILOT01	AE	01-709-1259	5	E08	BENIGN PROSTATIC HYPERPLASIA	ENLARGED PROSTATE	0	BENIGN PROSTATIC HYPERPLASIA	0	HLT_0215	0	HLGT_0568	0	REPRODUCTIVE SYSTEM AND BREAST DISORDERS	0	REPRODUCTIVE SYSTEM AND BREAST DISORDERS	0	MILD	N		NONE	NOT RECOVERED/NOT RESOLVED	N	N	N	N	Y	N	N	TREATMENT	3/23/2013	3/17/2013	3/30/2013	57	51	64
CDISCPILOT01	AE	01-709-1259	6	E08	BENIGN PROSTATIC HYPERPLASIA	ENLARGED PROSTATE	0	BENIGN PROSTATIC HYPERPLASIA	0	HLT_0215	0	HLGT_0568	0	REPRODUCTIVE SYSTEM AND BREAST DISORDERS	0	REPRODUCTIVE SYSTEM AND BREAST DISORDERS	0	SEVERE	N		NONE	RECOVERED/RESOLVED	N	N	N	N	Y	N	N	TREATMENT	4/20/2013	3/17/2013	3/30/2013	85	51	64
CDISCPILOT01	AE	01-709-1259	3	E06	BLOOD URINE PRESENT	BLOOD IN URINE	0	BLOOD URINE PRESENT	0	HLT_0458	0	HLGT_0289	0	INVESTIGATIONS	0	INVESTIGATIONS	0	MILD	N		NONE	NOT RECOVERED/NOT RESOLVED	N	N	N	N	N	N	N	TREATMENT	3/23/2013	3/14/2013		57	48	0
CDISCPILOT01	AE	01-709-1259	4	E07	CYSTOSCOPY	CYSTOSCOPY	0	CYSTOSCOPY	0	HLT_0436	0	HLGT_0041	0	INVESTIGATIONS	0	INVESTIGATIONS	0	MILD	N		NONE	RECOVERED/RESOLVED	N	N	N	N	N	N	N	TREATMENT	3/23/2013	3/17/2013	3/17/2013	57	51	51
CDISCPILOT01	AE	01-709-1259	8	E12	DEHYDRATION	DEHYDRATION	0	DEHYDRATION	0	HLT_0533	0	HLGT_0011	0	METABOLISM AND NUTRITION DISORDERS	0	METABOLISM AND NUTRITION DISORDERS	0	MILD	N		NONE	RECOVERED/RESOLVED	N	N	N	N	N	N	N	TREATMENT	4/20/2013	4/13/2013	4/14/2013	85	78	79
CDISCPILOT01	AE	01-709-1259	9	E13	HYPOTENSION	LOW BLOOD PRESSURE	0	HYPOTENSION	0	HLT_0761	0	HLGT_0412	0	VASCULAR DISORDERS	0	VASCULAR DISORDERS	0	MILD	N		POSSIBLE	RECOVERED/RESOLVED	N	N	N	N	Y	N	N	TREATMENT	4/20/2013	4/13/2013	4/14/2013	85	78	79
CDISCPILOT01	AE	01-709-1259	2	E05	LOCALISED INFECTION	INFECTED FINGER	0	LOCALISED INFECTION	0	HLT_0435	0	HLGT_0557	0	INFECTIONS AND INFESTATIONS	0	INFECTIONS AND INFESTATIONS	0	MILD	N		NONE	RECOVERED/RESOLVED	N	N	N	N	N	N	N	TREATMENT	2/22/2013	2/5/2013	2/13/2013	28	11	19
CDISCPILOT01	AE	01-709-1259	11	E14	ORTHOSTATIC HYPOTENSION	POSTURAL HYPOTENSION	0	ORTHOSTATIC HYPOTENSION	0	HLT_0194	0	HLGT_0111	0	VASCULAR DISORDERS	0	VASCULAR DISORDERS	0	MILD	N		POSSIBLE	RECOVERED/RESOLVED	N	N	N	N	N	N	N	TREATMENT	6/13/2013	4/20/2013	6/13/2013	139	85	139
CDISCPILOT01	AE	01-709-1259	7	E11	PYREXIA	FEVER	0	PYREXIA	0	HLT_0310	0	HLGT_0652	0	GENERAL DISORDERS AND ADMINISTRATION SITE CONDITIONS	0	GENERAL DISORDERS AND ADMINISTRATION SITE CONDITIONS	0	MILD	N		NONE	RECOVERED/RESOLVED	N	N	N	N	N	N	N	TREATMENT	4/20/2013	4/13/2013	4/14/2013	85	78	79
CDISCPILOT01	AE	01-709-1285	5	E04	APPLICATION SITE DERMATITIS	APPLICATION SITE RASH	0	APPLICATION SITE DERMATITIS	0	HLT_0343	0	HLGT_0241	0	GENERAL DISORDERS AND ADMINISTRATION SITE CONDITIONS	0	GENERAL DISORDERS AND ADMINISTRATION SITE CONDITIONS	0	MILD	N		PROBABLE	RECOVERED/RESOLVED	N	N	N	N	N	N	N	TREATMENT	5/31/2013	4/19/2013	5/31/2013	69	27	69
CDISCPILOT01	AE	01-709-1285	6	E05	APPLICATION SITE PRURITUS	APPLICATION SITE ITCHING	0	APPLICATION SITE PRURITUS	0	HLT_0317	0	HLGT_0338	0	GENERAL DISORDERS AND ADMINISTRATION SITE CONDITIONS	0	GENERAL DISORDERS AND ADMINISTRATION SITE CONDITIONS	0	MILD	N		PROBABLE	RECOVERED/RESOLVED	N	N	N	N	N	N	N	TREATMENT	5/31/2013	4/19/2013	5/31/2013	69	27	69
CDISCPILOT01	AE	01-709-1285	1	E03	HEMIANOPIA HOMONYMOUS	HOMONYMOUS HEMIANOPSIA	0	HEMIANOPIA HOMONYMOUS	0	HLT_0639	0	HLGT_0547	0	NERVOUS SYSTEM DISORDERS	0	NERVOUS SYSTEM DISORDERS	0	MILD	N		NONE	NOT RECOVERED/NOT RESOLVED	N	N	Y	N	N	N	N	TREATMENT	4/19/2013	4/14/2013		27	22	0
CDISCPILOT01	AE	01-709-1285	4	E06	SINUS BRADYCARDIA	SINUS BRADYCARDIA	0	SINUS BRADYCARDIA	0	HLT_0644	0	HLGT_0500	0	CARDIAC DISORDERS	0	CARDIAC DISORDERS	0	MILD	N		POSSIBLE	NOT RECOVERED/NOT RESOLVED	N	N	N	N	N	N	N	TREATMENT	5/19/2013	5/19/2013		57	57	0
CDISCPILOT01	AE	01-709-1301	1	E02	DIABETES MELLITUS	DIABETES	0	DIABETES MELLITUS	0	HLT_0447	0	HLGT_0572	0	METABOLISM AND NUTRITION DISORDERS	0	METABOLISM AND NUTRITION DISORDERS	0	MILD	N		NONE	NOT RECOVERED/NOT RESOLVED	N	N	N	N	N	N	N	TREATMENT	8/30/2013	8/30/2013		43	43	0
CDISCPILOT01	AE	01-709-1306	9	E03	APPLICATION SITE IRRITATION	APPLICATION SITE BURNING	0	APPLICATION SITE IRRITATION	0	HLT_0061	0	HLGT_0346	0	GENERAL DISORDERS AND ADMINISTRATION SITE CONDITIONS	0	GENERAL DISORDERS AND ADMINISTRATION SITE CONDITIONS	0	MODERATE	N		PROBABLE	RECOVERED/RESOLVED	N	N	N	N	N	N	N	TREATMENT	6/25/2014	5/4/2014	6/23/2014	143	91	141
CDISCPILOT01	AE	01-709-1306	2	E02	APPLICATION SITE PRURITUS	APPLICATION SITE ITCHING	0	APPLICATION SITE PRURITUS	0	HLT_0317	0	HLGT_0338	0	GENERAL DISORDERS AND ADMINISTRATION SITE CONDITIONS	0	GENERAL DISORDERS AND ADMINISTRATION SITE CONDITIONS	0	MILD	N		PROBABLE	NOT RECOVERED/NOT RESOLVED	N	N	N	N	N	N	N	TREATMENT	4/30/2014	4/20/2014	6/23/2014	87	77	141
CDISCPILOT01	AE	01-709-1306	8	E02	APPLICATION SITE PRURITUS	APPLICATION SITE ITCHING	0	APPLICATION SITE PRURITUS	0	HLT_0317	0	HLGT_0338	0	GENERAL DISORDERS AND ADMINISTRATION SITE CONDITIONS	0	GENERAL DISORDERS AND ADMINISTRATION SITE CONDITIONS	0	MODERATE	N		PROBABLE	RECOVERED/RESOLVED	N	N	N	N	N	N	N	TREATMENT	6/25/2014	4/20/2014	6/23/2014	143	77	141
CDISCPILOT01	AE	01-709-1306	6	E04	DRUG ERUPTION	DRUG RASH	0	DRUG ERUPTION	0	HLT_0430	0	HLGT_0253	0	SKIN AND SUBCUTANEOUS TISSUE DISORDERS	0	SKIN AND SUBCUTANEOUS TISSUE DISORDERS	0	MILD	N		NONE	RECOVERED/RESOLVED	N	N	N	N	N	N	N	TREATMENT	5/28/2014	5/20/2014	5/23/2014	115	107	110
CDISCPILOT01	AE	01-709-1306	1	E01	RASH	RASH	0	RASH	0	HLT_0762	0	HLGT_0198	0	SKIN AND SUBCUTANEOUS TISSUE DISORDERS	0	SKIN AND SUBCUTANEOUS TISSUE DISORDERS	0	MILD	N		PROBABLE	NOT RECOVERED/NOT RESOLVED	N	N	N	N	N	N	N	TREATMENT	4/30/2014	4/20/2014	6/23/2014	87	77	141
CDISCPILOT01	AE	01-709-1306	7	E01	RASH	RASH	0	RASH	0	HLT_0762	0	HLGT_0198	0	SKIN AND SUBCUTANEOUS TISSUE DISORDERS	0	SKIN AND SUBCUTANEOUS TISSUE DISORDERS	0	MODERATE	N		PROBABLE	RECOVERED/RESOLVED	N	N	N	N	N	N	N	TREATMENT	6/25/2014	4/20/2014	6/23/2014	143	77	141
CDISCPILOT01	AE	01-709-1309	12	E10	ALLERGIC GRANULOMATOUS ANGIITIS	ALLERGIC GRANULOMATOSIS	0	ALLERGIC GRANULOMATOUS ANGIITIS	0	HLT_0114	0	HLGT_0157	0	"RESPIRATORY, THORACIC AND MEDIASTINAL DISORDERS"	0	"RESPIRATORY, THORACIC AND MEDIASTINAL DISORDERS"	0	MILD	N		NONE	RECOVERED/RESOLVED	N	N	N	N	N	N	N	TREATMENT	7/16/2013	7/4/2013	7/4/2013	28	16	16
CDISCPILOT01	AE	01-709-1309	14	E12	APPLICATION SITE PRURITUS	APPLICATION SITE ITCHING	0	APPLICATION SITE PRURITUS	0	HLT_0317	0	HLGT_0338	0	GENERAL DISORDERS AND ADMINISTRATION SITE CONDITIONS	0	GENERAL DISORDERS AND ADMINISTRATION SITE CONDITIONS	0	MILD	N		PROBABLE	NOT RECOVERED/NOT RESOLVED	N	N	N	N	N	N	N	TREATMENT	7/31/2013	7/28/2013		43	40	0
CDISCPILOT01	AE	01-709-1309	8	E09	BIOPSY	BIOPSY	0	BIOPSY	0	HLT_0685	0	HLGT_0076	0	INVESTIGATIONS	0	INVESTIGATIONS	0	MILD	N		NONE	RECOVERED/RESOLVED	N	N	N	N	N	N	N	TREATMENT	7/1/2013	6/26/2013	6/26/2013	13	8	8
CDISCPILOT01	AE	01-709-1309	11	E08	DIZZINESS	DIZZINESS	0	DIZZINESS	0	HLT_0619	0	HLGT_0751	0	NERVOUS SYSTEM DISORDERS	0	NERVOUS SYSTEM DISORDERS	0	MILD	N		NONE	RECOVERED/RESOLVED	N	N	N	N	N	N	N	TREATMENT	7/16/2013	7/1/2013	7/1/2013	28	13	13
CDISCPILOT01	AE	01-709-1309	15	E13	FEELING COLD	FEELING COLD	0	FEELING COLD	0	HLT_0340	0	HLGT_0717	0	GENERAL DISORDERS AND ADMINISTRATION SITE CONDITIONS	0	GENERAL DISORDERS AND ADMINISTRATION SITE CONDITIONS	0	MILD	N		NONE	NOT RECOVERED/NOT RESOLVED	N	N	N	N	N	N	N	TREATMENT	9/11/2013	9/6/2013		85	80	0
CDISCPILOT01	AE	01-709-1309	5	E06	NASAL CONGESTION	NASAL CONGESTION	0	NASAL CONGESTION	0	HLT_0118	0	HLGT_0549	0	"RESPIRATORY, THORACIC AND MEDIASTINAL DISORDERS"	0	"RESPIRATORY, THORACIC AND MEDIASTINAL DISORDERS"	0	MILD	N		REMOTE	RECOVERED/RESOLVED	N	N	N	N	N	N	N	TREATMENT	7/1/2013	6/19/2013	6/20/2013	13	1	2
CDISCPILOT01	AE	01-709-1309	6	E07	NIGHTMARE	NIGHTMARE	0	NIGHTMARE	0	HLT_0186	0	HLGT_0049	0	PSYCHIATRIC DISORDERS	0	PSYCHIATRIC DISORDERS	0	MILD	N		REMOTE	RECOVERED/RESOLVED	N	N	N	N	N	N	N	TREATMENT	7/1/2013	6/19/2013	6/20/2013	13	1	2
CDISCPILOT01	AE	01-709-1309	10	E02	RASH MACULO-PAPULAR	MACULOPAPULAR RASH	0	RASH MACULO-PAPULAR	0	HLT_0500	0	HLGT_0097	0	SKIN AND SUBCUTANEOUS TISSUE DISORDERS	0	SKIN AND SUBCUTANEOUS TISSUE DISORDERS	0	MILD	N		POSSIBLE	RECOVERED/RESOLVED	N	N	N	N	N	N	N	SCREENING	7/16/2013	6/10/2013	7/1/2013	28	-9	13
CDISCPILOT01	AE	01-709-1309	7	E04	RASH MACULO-PAPULAR	MACULOPAPULAR RASH	0	RASH MACULO-PAPULAR	0	HLT_0500	0	HLGT_0097	0	SKIN AND SUBCUTANEOUS TISSUE DISORDERS	0	SKIN AND SUBCUTANEOUS TISSUE DISORDERS	0	MILD	N		PROBABLE	NOT RECOVERED/NOT RESOLVED	N	N	N	N	N	N	N	TREATMENT	7/1/2013	6/20/2013		13	2	0
CDISCPILOT01	AE	01-709-1309	13	E03	RASH PAPULAR	PAPULAR RASH	0	RASH PAPULAR	0	HLT_0549	0	HLGT_0007	0	SKIN AND SUBCUTANEOUS TISSUE DISORDERS	0	SKIN AND SUBCUTANEOUS TISSUE DISORDERS	0	MILD	N		POSSIBLE	RECOVERED/RESOLVED	N	N	N	N	N	N	N	SCREENING	7/18/2013	6/18/2013	7/16/2013	30	-1	28
CDISCPILOT01	AE	01-709-1309	4	E05	VOMITING	VOMITING	0	VOMITING	0	HLT_0016	0	HLGT_0350	0	GASTROINTESTINAL DISORDERS	0	GASTROINTESTINAL DISORDERS	0	MILD	N		POSSIBLE	RECOVERED/RESOLVED	N	N	N	N	N	N	N	TREATMENT	7/1/2013	6/19/2013	6/19/2013	13	1	1
CDISCPILOT01	AE	01-709-1312	1	E04	APPLICATION SITE DERMATITIS	APPLICATION SITE RASH	0	APPLICATION SITE DERMATITIS	0	HLT_0343	0	HLGT_0241	0	GENERAL DISORDERS AND ADMINISTRATION SITE CONDITIONS	0	GENERAL DISORDERS AND ADMINISTRATION SITE CONDITIONS	0	MILD	N		PROBABLE	NOT RECOVERED/NOT RESOLVED	N	N	N	N	N	N	N	TREATMENT	5/17/2014	5/17/2014		28	28	0
CDISCPILOT01	AE	01-709-1312	2	E05	ELECTROCARDIOGRAM ST SEGMENT DEPRESSION	ST SEGMENT DEPRESSED	0	ELECTROCARDIOGRAM ST SEGMENT DEPRESSION	0	HLT_0610	0	HLGT_0220	0	INVESTIGATIONS	0	INVESTIGATIONS	0	MILD	N		REMOTE	NOT RECOVERED/NOT RESOLVED	N	N	N	N	N	N	N	TREATMENT	10/19/2014	10/19/2014		183	183	0
CDISCPILOT01	AE	01-709-1326	5	E07	APPLICATION SITE BLEEDING	APPLICATION SITE BLEEDING	0	APPLICATION SITE BLEEDING	0	HLT_0718	0	HLGT_0324	0	GENERAL DISORDERS AND ADMINISTRATION SITE CONDITIONS	0	GENERAL DISORDERS AND ADMINISTRATION SITE CONDITIONS	0	MODERATE	N		PROBABLE	RECOVERED/RESOLVED	N	N	N	N	N	N	N	TREATMENT	6/26/2013	6/7/2013	6/17/2013	83	64	74
CDISCPILOT01	AE	01-709-1326	1	E05	APPLICATION SITE DERMATITIS	APPLICATION SITE RASH	0	APPLICATION SITE DERMATITIS	0	HLT_0343	0	HLGT_0241	0	GENERAL DISORDERS AND ADMINISTRATION SITE CONDITIONS	0	GENERAL DISORDERS AND ADMINISTRATION SITE CONDITIONS	0	MILD	N		PROBABLE	NOT RECOVERED/NOT RESOLVED	N	N	N	N	N	N	N	TREATMENT	5/1/2013	5/1/2013		27	27	0
CDISCPILOT01	AE	01-709-1326	2	E06	APPLICATION SITE PRURITUS	APPLICATION SITE ITCHING	0	APPLICATION SITE PRURITUS	0	HLT_0317	0	HLGT_0338	0	GENERAL DISORDERS AND ADMINISTRATION SITE CONDITIONS	0	GENERAL DISORDERS AND ADMINISTRATION SITE CONDITIONS	0	MILD	N		PROBABLE	NOT RECOVERED/NOT RESOLVED	N	N	N	N	N	N	N	TREATMENT	5/1/2013	5/1/2013		27	27	0
CDISCPILOT01	AE	01-709-1326	6	E08	COUGH	COUGH	0	COUGH	0	HLT_0701	0	HLGT_0280	0	"RESPIRATORY, THORACIC AND MEDIASTINAL DISORDERS"	0	"RESPIRATORY, THORACIC AND MEDIASTINAL DISORDERS"	0	MILD	N		NONE	NOT RECOVERED/NOT RESOLVED	N	N	N	N	N	N	N	TREATMENT	7/26/2013	7/12/2013		113	99	0
CDISCPILOT01	AE	01-709-1326	4	E04	SYNCOPE	SYNCOPE	0	SYNCOPE	0	HLT_0440	0	HLGT_0310	0	NERVOUS SYSTEM DISORDERS	0	NERVOUS SYSTEM DISORDERS	0	MILD	N		POSSIBLE	RECOVERED/RESOLVED	N	N	N	N	Y	N	N	TREATMENT	6/1/2013	5/21/2013	5/21/2013	58	47	47
CDISCPILOT01	AE	01-709-1326	3	E03	VOMITING	VOMITING	0	VOMITING	0	HLT_0016	0	HLGT_0350	0	GASTROINTESTINAL DISORDERS	0	GASTROINTESTINAL DISORDERS	0	MILD	N		POSSIBLE	RECOVERED/RESOLVED	N	N	N	N	N	N	N	TREATMENT	6/1/2013	5/21/2013	5/21/2013	58	47	47
CDISCPILOT01	AE	01-709-1329	1	E02	DIZZINESS	DIZZINESS	0	DIZZINESS	0	HLT_0619	0	HLGT_0751	0	NERVOUS SYSTEM DISORDERS	0	NERVOUS SYSTEM DISORDERS	0	MILD	N		POSSIBLE	RECOVERED/RESOLVED	N	N	N	N	N	N	N	TREATMENT	8/29/2013	8/25/2013	8/25/2013	15	11	11
CDISCPILOT01	AE	01-709-1329	2	E03	PYREXIA	FEVER	0	PYREXIA	0	HLT_0310	0	HLGT_0652	0	GENERAL DISORDERS AND ADMINISTRATION SITE CONDITIONS	0	GENERAL DISORDERS AND ADMINISTRATION SITE CONDITIONS	0	MILD	N		REMOTE	RECOVERED/RESOLVED	N	N	N	N	N	N	N	TREATMENT	8/29/2013	8/25/2013	8/25/2013	15	11	11
CDISCPILOT01	AE	01-709-1339	2	E05	BLOOD ALKALINE PHOSPHATASE INCREASED	ALK PHOS RAISED	0	BLOOD ALKALINE PHOSPHATASE INCREASED	0	HLT_0615	0	HLGT_0298	0	INVESTIGATIONS	0	INVESTIGATIONS	0	MODERATE	N		NONE	NOT RECOVERED/NOT RESOLVED	N	N	N	N	N	N	N	TREATMENT	5/12/2013	5/12/2013		141	141	0
CDISCPILOT01	AE	01-709-1339	1	E04	HEADACHE	HEADACHE	0	HEADACHE	0	HLT_0064	0	HLGT_0344	0	NERVOUS SYSTEM DISORDERS	0	NERVOUS SYSTEM DISORDERS	0	MODERATE	N		NONE	NOT RECOVERED/NOT RESOLVED	N	N	N	N	N	N	N	SCREENING	2/19/2013	2011-11		59	0	0
CDISCPILOT01	AE	01-709-1424	1	E05	SYNCOPE	SYNCOPE	0	SYNCOPE	0	HLT_0440	0	HLGT_0310	0	NERVOUS SYSTEM DISORDERS	0	NERVOUS SYSTEM DISORDERS	0	MODERATE	Y		POSSIBLE	RECOVERED/RESOLVED	N	N	N	N	N	Y	N	TREATMENT	3/8/2013	3/7/2013	3/7/2013	6	5	5
CDISCPILOT01	AE	01-710-1002	2	E01	TRANSIENT ISCHAEMIC ATTACK	TRANSIENT ISCHEMIC ATTACKS	0	TRANSIENT ISCHAEMIC ATTACK	0	HLT_0041	0	HLGT_0433	0	NERVOUS SYSTEM DISORDERS	0	NERVOUS SYSTEM DISORDERS	0	MILD	N		REMOTE	RECOVERED/RESOLVED	N	N	N	N	Y	N	N	TREATMENT	1/20/2014	1/16/2014	1/20/2014	7	3	7
CDISCPILOT01	AE	01-710-1006	12	E11	CONTUSION	BRUISING OF FACE	0	CONTUSION	0	HLT_0713	0	HLGT_0381	0	"INJURY, POISONING AND PROCEDURAL COMPLICATIONS"	0	"INJURY, POISONING AND PROCEDURAL COMPLICATIONS"	0	MILD	N		NONE	NOT RECOVERED/NOT RESOLVED	N	N	N	N	N	N	N	TREATMENT	8/10/2013	8/8/2013		182	180	0
CDISCPILOT01	AE	01-710-1006	1	E01	DIZZINESS	DIZZINESS	0	DIZZINESS	0	HLT_0619	0	HLGT_0751	0	NERVOUS SYSTEM DISORDERS	0	NERVOUS SYSTEM DISORDERS	0	MILD	N		NONE	RECOVERED/RESOLVED	N	N	N	N	N	N	N	TREATMENT	2/22/2013	2/18/2013	2/19/2013	13	9	10
CDISCPILOT01	AE	01-710-1006	4	E05	DIZZINESS	FELT FAINT	0	DIZZINESS	0	HLT_0619	0	HLGT_0751	0	NERVOUS SYSTEM DISORDERS	0	NERVOUS SYSTEM DISORDERS	0	MILD	N		NONE	RECOVERED/RESOLVED	N	N	N	N	N	N	N	TREATMENT	5/4/2013	4/16/2013	4/16/2013	84	66	66
CDISCPILOT01	AE	01-710-1006	11	E10	FACIAL BONES FRACTURE	FRACTURED NOSE	0	FACIAL BONES FRACTURE	0	HLT_0305	0	HLGT_0585	0	"INJURY, POISONING AND PROCEDURAL COMPLICATIONS"	0	"INJURY, POISONING AND PROCEDURAL COMPLICATIONS"	0	MODERATE	N		NONE	NOT RECOVERED/NOT RESOLVED	N	N	N	N	N	N	N	TREATMENT	8/10/2013	8/8/2013		182	180	0
CDISCPILOT01	AE	01-710-1006	10	E09	FALL	FALL	0	FALL	0	HLT_0168	0	HLGT_0446	0	"INJURY, POISONING AND PROCEDURAL COMPLICATIONS"	0	"INJURY, POISONING AND PROCEDURAL COMPLICATIONS"	0	MILD	N		NONE	RECOVERED/RESOLVED	N	N	N	N	N	N	N	TREATMENT	8/10/2013	8/8/2013	8/8/2013	182	180	180
CDISCPILOT01	AE	01-710-1006	6	E06	NEPHROLITHIASIS	KIDNEY STONE	0	NEPHROLITHIASIS	0	HLT_0439	0	HLGT_0546	0	RENAL AND URINARY DISORDERS	0	RENAL AND URINARY DISORDERS	0	MODERATE	N		NONE	RECOVERED/RESOLVED	N	N	N	N	N	N	N	TREATMENT	5/4/2013	4/17/2013	4/17/2013	84	67	67
CDISCPILOT01	AE	01-710-1006	7	E07	PRURITUS	PRURITUS	0	PRURITUS	0	HLT_0778	0	HLGT_0695	0	SKIN AND SUBCUTANEOUS TISSUE DISORDERS	0	SKIN AND SUBCUTANEOUS TISSUE DISORDERS	0	MODERATE	N		POSSIBLE	NOT RECOVERED/NOT RESOLVED	N	N	N	N	N	N	N	TREATMENT	6/1/2013	5/18/2013		112	98	0
CDISCPILOT01	AE	01-710-1006	2	E02	SALIVARY HYPERSECRETION	SALIVATION	0	SALIVARY HYPERSECRETION	0	HLT_0374	0	HLGT_0488	0	GASTROINTESTINAL DISORDERS	0	GASTROINTESTINAL DISORDERS	0	MILD	N		POSSIBLE	NOT RECOVERED/NOT RESOLVED	N	N	N	N	N	N	N	TREATMENT	3/8/2013	3/1/2013		27	20	0
CDISCPILOT01	AE	01-710-1006	9	E08	SINUS BRADYCARDIA	SINUS BRADYCARDIA	0	SINUS BRADYCARDIA	0	HLT_0644	0	HLGT_0500	0	CARDIAC DISORDERS	0	CARDIAC DISORDERS	0	MODERATE	N		REMOTE	RECOVERED/RESOLVED	N	N	N	N	N	N	N	TREATMENT	7/27/2013	6/29/2013	7/4/2013	168	140	145
CDISCPILOT01	AE	01-710-1006	3	E03	SKIN IRRITATION	SKIN IRRITATION	0	SKIN IRRITATION	0	HLT_0583	0	HLGT_0384	0	SKIN AND SUBCUTANEOUS TISSUE DISORDERS	0	SKIN AND SUBCUTANEOUS TISSUE DISORDERS	0	MILD	N		POSSIBLE	NOT RECOVERED/NOT RESOLVED	N	N	N	N	N	N	N	TREATMENT	3/8/2013	3/1/2013		27	20	0
CDISCPILOT01	AE	01-710-1006	5	E04	URINARY TRACT INFECTION	URINARY INFECTION	0	URINARY TRACT INFECTION	0	HLT_0161	0	HLGT_0093	0	INFECTIONS AND INFESTATIONS	0	INFECTIONS AND INFESTATIONS	0	MILD	N		NONE	RECOVERED/RESOLVED	N	N	N	N	N	N	N	TREATMENT	5/4/2013	4/17/2013	4/19/2013	84	67	69
CDISCPILOT01	AE	01-710-1021	1	E01	CHEST PAIN	CHEST PAIN	0	CHEST PAIN	0	HLT_0717	0	HLGT_0195	0	GENERAL DISORDERS AND ADMINISTRATION SITE CONDITIONS	0	GENERAL DISORDERS AND ADMINISTRATION SITE CONDITIONS	0	MILD	N		REMOTE	RECOVERED/RESOLVED	N	N	N	N	N	N	N	TREATMENT	10/11/2013	10/10/2013	10/10/2013	15	14	14
CDISCPILOT01	AE	01-710-1021	3	E02	PRURITUS	ITCHING	0	PRURITUS	0	HLT_0778	0	HLGT_0695	0	SKIN AND SUBCUTANEOUS TISSUE DISORDERS	0	SKIN AND SUBCUTANEOUS TISSUE DISORDERS	0	MODERATE	N		POSSIBLE	RECOVERED/RESOLVED	N	N	N	N	N	N	N	TREATMENT	11/12/2013	10/21/2013	10/31/2013	47	25	35
CDISCPILOT01	AE	01-710-1027	3	E05	HAEMOPTYSIS	COUGHING BLOOD	0	HAEMOPTYSIS	0	HLT_0192	0	HLGT_0680	0	"RESPIRATORY, THORACIC AND MEDIASTINAL DISORDERS"	0	"RESPIRATORY, THORACIC AND MEDIASTINAL DISORDERS"	0	MILD	N		NONE	RECOVERED/RESOLVED	N	N	N	N	N	N	N	TREATMENT	6/20/2014	5/9/2014	6/1/2014	113	71	94
CDISCPILOT01	AE	01-710-1027	4	E06	RALES	RALES	0	RALES	0	HLT_0020	0	HLGT_0410	0	"RESPIRATORY, THORACIC AND MEDIASTINAL DISORDERS"	0	"RESPIRATORY, THORACIC AND MEDIASTINAL DISORDERS"	0	MILD	N		NONE	RECOVERED/RESOLVED	N	N	N	N	N	N	N	TREATMENT	7/17/2014	5/23/2014	6/20/2014	140	85	113
CDISCPILOT01	AE	01-710-1045	12	E10	ERYTHEMA	ERYTHEMA	0	ERYTHEMA	0	HLT_0284	0	HLGT_0192	0	SKIN AND SUBCUTANEOUS TISSUE DISORDERS	0	SKIN AND SUBCUTANEOUS TISSUE DISORDERS	0	MILD	N		POSSIBLE	RECOVERED/RESOLVED	N	N	N	N	N	N	N	TREATMENT	9/8/2013	8/3/2013	8/17/2013	98	62	76
CDISCPILOT01	AE	01-710-1045	5	E06	NASOPHARYNGITIS	COLD SYMPTOMS	0	NASOPHARYNGITIS	0	HLT_0036	0	HLGT_0709	0	INFECTIONS AND INFESTATIONS	0	INFECTIONS AND INFESTATIONS	0	MILD	N		NONE	RECOVERED/RESOLVED	N	N	N	N	N	N	N	TREATMENT	7/15/2013	7/2/2013	7/9/2013	43	30	37
CDISCPILOT01	AE	01-710-1045	10	E08	PRURITUS	ITCHING	0	PRURITUS	0	HLT_0778	0	HLGT_0695	0	SKIN AND SUBCUTANEOUS TISSUE DISORDERS	0	SKIN AND SUBCUTANEOUS TISSUE DISORDERS	0	MILD	N		POSSIBLE	RECOVERED/RESOLVED	N	N	N	N	N	N	N	TREATMENT	9/8/2013	7/2/2013	8/17/2013	98	30	76
CDISCPILOT01	AE	01-710-1045	11	E09	RASH	RASH	0	RASH	0	HLT_0762	0	HLGT_0198	0	SKIN AND SUBCUTANEOUS TISSUE DISORDERS	0	SKIN AND SUBCUTANEOUS TISSUE DISORDERS	0	MILD	N		POSSIBLE	RECOVERED/RESOLVED	N	N	N	N	N	N	N	TREATMENT	9/8/2013	7/22/2013	8/17/2013	98	50	76
CDISCPILOT01	AE	01-710-1045	13	E11	SKIN EXFOLIATION	SKIN PEELING	0	SKIN EXFOLIATION	0	HLT_0236	0	HLGT_0726	0	SKIN AND SUBCUTANEOUS TISSUE DISORDERS	0	SKIN AND SUBCUTANEOUS TISSUE DISORDERS	0	MODERATE	N		POSSIBLE	RECOVERED/RESOLVED	N	N	N	N	N	N	N	TREATMENT	9/8/2013	8/13/2013	8/17/2013	98	72	76
CDISCPILOT01	AE	01-710-1045	9	E07	SKIN IRRITATION	SKIN IRRITATION	0	SKIN IRRITATION	0	HLT_0583	0	HLGT_0384	0	SKIN AND SUBCUTANEOUS TISSUE DISORDERS	0	SKIN AND SUBCUTANEOUS TISSUE DISORDERS	0	MILD	N		POSSIBLE	RECOVERED/RESOLVED	N	N	N	N	N	N	N	TREATMENT	9/8/2013	7/2/2013	8/17/2013	98	30	76
CDISCPILOT01	AE	01-710-1045	1	E05	VOMITING	VOMITING	0	VOMITING	0	HLT_0016	0	HLGT_0350	0	GASTROINTESTINAL DISORDERS	0	GASTROINTESTINAL DISORDERS	0	MILD	N		REMOTE	RECOVERED/RESOLVED	N	N	N	N	N	N	N	TREATMENT	7/1/2013	6/22/2013	6/22/2013	29	20	20
CDISCPILOT01	AE	01-710-1053	3	E03	PRURITUS	ITCHING	0	PRURITUS	0	HLT_0778	0	HLGT_0695	0	SKIN AND SUBCUTANEOUS TISSUE DISORDERS	0	SKIN AND SUBCUTANEOUS TISSUE DISORDERS	0	MODERATE	N		POSSIBLE	RECOVERED/RESOLVED	N	N	N	N	N	N	N	TREATMENT	2/15/2013	1/28/2013	2/11/2013	52	34	48
CDISCPILOT01	AE	01-710-1053	4	E04	RASH	RASH	0	RASH	0	HLT_0762	0	HLGT_0198	0	SKIN AND SUBCUTANEOUS TISSUE DISORDERS	0	SKIN AND SUBCUTANEOUS TISSUE DISORDERS	0	MODERATE	N		POSSIBLE	RECOVERED/RESOLVED	N	N	N	N	N	N	N	TREATMENT	2/15/2013	1/28/2013	2/11/2013	52	34	48
CDISCPILOT01	AE	01-710-1060	4	E07	APPLICATION SITE INDURATION	APPLICATION SITE INDURATION	0	APPLICATION SITE INDURATION	0	HLT_0696	0	HLGT_0715	0	GENERAL DISORDERS AND ADMINISTRATION SITE CONDITIONS	0	GENERAL DISORDERS AND ADMINISTRATION SITE CONDITIONS	0	MILD	N		POSSIBLE	RECOVERED/RESOLVED	N	N	N	N	N	N	N	TREATMENT	2/1/2013	1/21/2013	1/21/2013	32	21	21
CDISCPILOT01	AE	01-710-1060	5	E06	APPLICATION SITE PRURITUS	APPLICATION SITE ITCHING	0	APPLICATION SITE PRURITUS	0	HLT_0317	0	HLGT_0338	0	GENERAL DISORDERS AND ADMINISTRATION SITE CONDITIONS	0	GENERAL DISORDERS AND ADMINISTRATION SITE CONDITIONS	0	MILD	N		POSSIBLE	RECOVERED/RESOLVED	N	N	N	N	N	N	N	TREATMENT	2/1/2013	1/23/2013	1/23/2013	32	23	23
CDISCPILOT01	AE	01-710-1060	6	E08	APPLICATION SITE PRURITUS	APPLICATION SITE ITCHING	0	APPLICATION SITE PRURITUS	0	HLT_0317	0	HLGT_0338	0	GENERAL DISORDERS AND ADMINISTRATION SITE CONDITIONS	0	GENERAL DISORDERS AND ADMINISTRATION SITE CONDITIONS	0	MILD	N		POSSIBLE	RECOVERED/RESOLVED	N	N	N	N	N	N	N	TREATMENT	2/1/2013	1/31/2013	1/31/2013	32	31	31
CDISCPILOT01	AE	01-710-1060	7	E09	FALL	FALLING DOWN	0	FALL	0	HLT_0168	0	HLGT_0446	0	"INJURY, POISONING AND PROCEDURAL COMPLICATIONS"	0	"INJURY, POISONING AND PROCEDURAL COMPLICATIONS"	0	MILD	N		NONE	RECOVERED/RESOLVED	N	N	N	N	N	N	N	TREATMENT	2/12/2013	2/8/2013	2/8/2013	43	39	39
CDISCPILOT01	AE	01-710-1060	8	E10	FALL	FALLING DOWN	0	FALL	0	HLT_0168	0	HLGT_0446	0	"INJURY, POISONING AND PROCEDURAL COMPLICATIONS"	0	"INJURY, POISONING AND PROCEDURAL COMPLICATIONS"	0	MILD	N		NONE	RECOVERED/RESOLVED	N	N	N	N	N	N	N	TREATMENT	2/12/2013	2/9/2013	2/9/2013	43	40	40
CDISCPILOT01	AE	01-710-1060	3	E04	INSOMNIA	DIFFICULTY SLEEPING	0	INSOMNIA	0	HLT_0297	0	HLGT_0469	0	PSYCHIATRIC DISORDERS	0	PSYCHIATRIC DISORDERS	0	MILD	N		NONE	RECOVERED/RESOLVED	N	N	N	N	N	N	N	TREATMENT	2/1/2013	1/4/2013	1/15/2013	32	4	15
CDISCPILOT01	AE	01-710-1060	1	E05	NASAL CONGESTION	NASAL CONGESTION	0	NASAL CONGESTION	0	HLT_0118	0	HLGT_0549	0	"RESPIRATORY, THORACIC AND MEDIASTINAL DISORDERS"	0	"RESPIRATORY, THORACIC AND MEDIASTINAL DISORDERS"	0	MILD	N		NONE	RECOVERED/RESOLVED	N	N	N	N	N	N	N	TREATMENT	1/15/2013	1/2/2013	1/2/2013	15	2	2
CDISCPILOT01	AE	01-710-1070	3	E10	ERYTHEMA	ERYTHEMA	0	ERYTHEMA	0	HLT_0284	0	HLGT_0192	0	SKIN AND SUBCUTANEOUS TISSUE DISORDERS	0	SKIN AND SUBCUTANEOUS TISSUE DISORDERS	0	MILD	N		PROBABLE	NOT RECOVERED/NOT RESOLVED	N	N	N	N	N	N	N	TREATMENT	12/28/2012	12/12/2012		112	96	0
CDISCPILOT01	AE	01-710-1070	6	E13	GASTROINTESTINAL HAEMORRHAGE	GI BLEED	0	GASTROINTESTINAL HAEMORRHAGE	0	HLT_0354	0	HLGT_0020	0	GASTROINTESTINAL DISORDERS	0	GASTROINTESTINAL DISORDERS	0	SEVERE	N		NONE	RECOVERED/RESOLVED	N	N	N	N	Y	N	N	TREATMENT	2/23/2013	2/5/2013	2/10/2013	169	151	156
CDISCPILOT01	AE	01-710-1070	5	E12	HIP FRACTURE	HIP FRACTURE	0	HIP FRACTURE	0	HLT_0097	0	HLGT_0131	0	"INJURY, POISONING AND PROCEDURAL COMPLICATIONS"	0	"INJURY, POISONING AND PROCEDURAL COMPLICATIONS"	0	SEVERE	N		NONE	RECOVERED/RESOLVED	N	N	N	N	Y	N	N	TREATMENT	2/23/2013	1/22/2013	1/25/2013	169	137	140
CDISCPILOT01	AE	01-710-1070	2	E09	PRURITUS	ITCHY	0	PRURITUS	0	HLT_0778	0	HLGT_0695	0	SKIN AND SUBCUTANEOUS TISSUE DISORDERS	0	SKIN AND SUBCUTANEOUS TISSUE DISORDERS	0	MILD	N		PROBABLE	NOT RECOVERED/NOT RESOLVED	N	N	N	N	N	N	N	TREATMENT	12/28/2012	12/12/2012		112	96	0
CDISCPILOT01	AE	01-710-1070	4	E11	RASH	RASH	0	RASH	0	HLT_0762	0	HLGT_0198	0	SKIN AND SUBCUTANEOUS TISSUE DISORDERS	0	SKIN AND SUBCUTANEOUS TISSUE DISORDERS	0	MILD	N		PROBABLE	NOT RECOVERED/NOT RESOLVED	N	N	N	N	N	N	N	TREATMENT	12/28/2012	12/12/2012		112	96	0
CDISCPILOT01	AE	01-710-1070	1	E08	SUPRAVENTRICULAR EXTRASYSTOLES	PREMATURE ATRIAL CONTRACTION	0	SUPRAVENTRICULAR EXTRASYSTOLES	0	HLT_0188	0	HLGT_0279	0	CARDIAC DISORDERS	0	CARDIAC DISORDERS	0	MILD	N		POSSIBLE	NOT RECOVERED/NOT RESOLVED	N	N	N	N	N	N	N	TREATMENT	10/6/2012	10/6/2012		29	29	0
CDISCPILOT01	AE	01-710-1077	3	E06	AGITATION	AGITATION	0	AGITATION	0	HLT_0140	0	HLGT_0170	0	PSYCHIATRIC DISORDERS	0	PSYCHIATRIC DISORDERS	0	MILD	N		REMOTE	NOT RECOVERED/NOT RESOLVED	N	N	N	N	N	N	N	TREATMENT	1/12/2014	1/12/2014		57	57	0
CDISCPILOT01	AE	01-710-1077	1	E04	APPLICATION SITE DERMATITIS	APPLICATION SITE RASH	0	APPLICATION SITE DERMATITIS	0	HLT_0343	0	HLGT_0241	0	GENERAL DISORDERS AND ADMINISTRATION SITE CONDITIONS	0	GENERAL DISORDERS AND ADMINISTRATION SITE CONDITIONS	0	MILD	N		POSSIBLE	RECOVERED/RESOLVED	N	N	N	N	N	N	N	TREATMENT	12/15/2013	12/12/2013	12/12/2013	29	26	26
CDISCPILOT01	AE	01-710-1077	4	E01	ARTHRITIS	ARTHRITIS	0	ARTHRITIS	0	HLT_0019	0	HLGT_0587	0	MUSCULOSKELETAL AND CONNECTIVE TISSUE DISORDERS	0	MUSCULOSKELETAL AND CONNECTIVE TISSUE DISORDERS	0	SEVERE	N		NONE	NOT RECOVERED/NOT RESOLVED	N	N	N	N	N	N	N	SCREENING	4/6/2014	1977		141	0	0
CDISCPILOT01	AE	01-710-1077	5	E01	ARTHRITIS	ARTHRITIS	0	ARTHRITIS	0	HLT_0019	0	HLGT_0587	0	MUSCULOSKELETAL AND CONNECTIVE TISSUE DISORDERS	0	MUSCULOSKELETAL AND CONNECTIVE TISSUE DISORDERS	0	MODERATE	N		NONE	NOT RECOVERED/NOT RESOLVED	N	N	N	N	N	N	N	SCREENING	5/3/2014	1977		168	0	0
CDISCPILOT01	AE	01-710-1077	2	E05	SKIN IRRITATION	SKIN IRRITATION	0	SKIN IRRITATION	0	HLT_0583	0	HLGT_0384	0	SKIN AND SUBCUTANEOUS TISSUE DISORDERS	0	SKIN AND SUBCUTANEOUS TISSUE DISORDERS	0	MILD	N		POSSIBLE	NOT RECOVERED/NOT RESOLVED	N	N	N	N	N	N	N	TREATMENT	12/30/2013	12/27/2013		44	41	0
CDISCPILOT01	AE	01-710-1083	1	E04	MYOCARDIAL INFARCTION	MYOCARDIAL INFARCT	0	MYOCARDIAL INFARCTION	0	HLT_0649	0	HLGT_0688	0	CARDIAC DISORDERS	0	CARDIAC DISORDERS	0	SEVERE	N		POSSIBLE	FATAL	N	N	N	Y	Y	Y	N	TREATMENT	8/3/2013	8/2/2013	8/2/2013	13	12	12
CDISCPILOT01	AE	01-710-1137	2	E05	ERYTHEMA	REDNESS	0	ERYTHEMA	0	HLT_0284	0	HLGT_0192	0	SKIN AND SUBCUTANEOUS TISSUE DISORDERS	0	SKIN AND SUBCUTANEOUS TISSUE DISORDERS	0	MILD	N		POSSIBLE	NOT RECOVERED/NOT RESOLVED	N	N	N	N	N	N	N	TREATMENT	10/25/2013	10/13/2013		15	3	0
CDISCPILOT01	AE	01-710-1137	4	E07	HEADACHE	HEADACHE	0	HEADACHE	0	HLT_0064	0	HLGT_0344	0	NERVOUS SYSTEM DISORDERS	0	NERVOUS SYSTEM DISORDERS	0	MILD	N		REMOTE	NOT RECOVERED/NOT RESOLVED	N	N	N	N	N	N	N	TREATMENT	11/13/2013	11/13/2013		34	34	0
CDISCPILOT01	AE	01-710-1137	1	E04	PRURITUS	ITCHING	0	PRURITUS	0	HLT_0778	0	HLGT_0695	0	SKIN AND SUBCUTANEOUS TISSUE DISORDERS	0	SKIN AND SUBCUTANEOUS TISSUE DISORDERS	0	MILD	N		POSSIBLE	NOT RECOVERED/NOT RESOLVED	N	N	N	N	N	N	N	TREATMENT	10/25/2013	10/13/2013		15	3	0
CDISCPILOT01	AE	01-710-1137	3	E06	VERTIGO	VERTIGO	0	VERTIGO	0	HLT_0255	0	HLGT_0147	0	EAR AND LABYRINTH DISORDERS	0	EAR AND LABYRINTH DISORDERS	0	MODERATE	N		POSSIBLE	NOT RECOVERED/NOT RESOLVED	N	N	N	N	N	N	N	TREATMENT	11/8/2013	11/4/2013		29	25	0
CDISCPILOT01	AE	01-710-1142	1	E02	DIZZINESS	DIZZINESS	0	DIZZINESS	0	HLT_0619	0	HLGT_0751	0	NERVOUS SYSTEM DISORDERS	0	NERVOUS SYSTEM DISORDERS	0	MODERATE	N		REMOTE	RECOVERED/RESOLVED	N	N	N	N	N	N	N	TREATMENT	10/16/2012	10/4/2012	10/6/2012	15	3	5
CDISCPILOT01	AE	01-710-1142	2	E03	HEADACHE	HEADACHE	0	HEADACHE	0	HLT_0064	0	HLGT_0344	0	NERVOUS SYSTEM DISORDERS	0	NERVOUS SYSTEM DISORDERS	0	MILD	N		REMOTE	RECOVERED/RESOLVED	N	N	N	N	N	N	N	TREATMENT	10/16/2012	10/4/2012	10/6/2012	15	3	5
CDISCPILOT01	AE	01-710-1142	4	E05	MYOCARDIAL INFARCTION	MYOCARDIAL INFARCTION	0	MYOCARDIAL INFARCTION	0	HLT_0649	0	HLGT_0688	0	CARDIAC DISORDERS	0	CARDIAC DISORDERS	0	MODERATE	N		POSSIBLE	RECOVERED/RESOLVED	N	N	N	N	Y	N	N	TREATMENT	10/23/2012	10/19/2012	10/19/2012	22	18	18
CDISCPILOT01	AE	01-710-1142	3	E07	NAUSEA	NAUSEA	0	NAUSEA	0	HLT_0742	0	HLGT_0326	0	GASTROINTESTINAL DISORDERS	0	GASTROINTESTINAL DISORDERS	0	MILD	N		NONE	RECOVERED/RESOLVED	N	N	N	N	N	N	N	TREATMENT	10/16/2012	10/14/2012	10/14/2012	15	13	13
CDISCPILOT01	AE	01-710-1142	5	E06	SYNCOPE VASOVAGAL	SYNCOPE VASOVAGAL	0	SYNCOPE VASOVAGAL	0	HLT_0003	0	HLGT_0687	0	NERVOUS SYSTEM DISORDERS	0	NERVOUS SYSTEM DISORDERS	0	MODERATE	N		POSSIBLE	RECOVERED/RESOLVED	N	N	N	N	N	N	N	TREATMENT	10/23/2012	10/19/2012	10/19/2012	22	18	18
CDISCPILOT01	AE	01-710-1154	1	E04	SKIN IRRITATION	SKIN IRRITATION	0	SKIN IRRITATION	0	HLT_0583	0	HLGT_0384	0	SKIN AND SUBCUTANEOUS TISSUE DISORDERS	0	SKIN AND SUBCUTANEOUS TISSUE DISORDERS	0	MODERATE	N		POSSIBLE	NOT RECOVERED/NOT RESOLVED	N	N	N	N	N	N	N	TREATMENT	4/25/2014	4/18/2014		28	21	0
CDISCPILOT01	AE	01-710-1154	2	E04	SKIN IRRITATION	SKIN IRRITATION	0	SKIN IRRITATION	0	HLT_0583	0	HLGT_0384	0	SKIN AND SUBCUTANEOUS TISSUE DISORDERS	0	SKIN AND SUBCUTANEOUS TISSUE DISORDERS	0	SEVERE	N		POSSIBLE	NOT RECOVERED/NOT RESOLVED	N	N	N	N	N	N	N	TREATMENT	5/9/2014	4/18/2014		42	21	0
CDISCPILOT01	AE	01-710-1166	4	E09	COMPLEX PARTIAL SEIZURES	COMPLEX PARTIAL SEIZURES	0	COMPLEX PARTIAL SEIZURES	0	HLT_0558	0	HLGT_0656	0	NERVOUS SYSTEM DISORDERS	0	NERVOUS SYSTEM DISORDERS	0	MODERATE	N		POSSIBLE	RECOVERED/RESOLVED	N	N	N	N	Y	N	N	TREATMENT	3/30/2013	3/19/2013	3/20/2013	121	110	111
CDISCPILOT01	AE	01-710-1166	1	E05	FALL	FALL	0	FALL	0	HLT_0168	0	HLGT_0446	0	"INJURY, POISONING AND PROCEDURAL COMPLICATIONS"	0	"INJURY, POISONING AND PROCEDURAL COMPLICATIONS"	0	MODERATE	N		POSSIBLE	RECOVERED/RESOLVED	N	N	N	N	N	N	N	TREATMENT	3/30/2013	3/19/2013	3/19/2013	121	110	110
CDISCPILOT01	AE	01-710-1166	2	E06	SKIN LACERATION	LACERATION OF HEAD	0	SKIN LACERATION	0	HLT_0075	0	HLGT_0118	0	"INJURY, POISONING AND PROCEDURAL COMPLICATIONS"	0	"INJURY, POISONING AND PROCEDURAL COMPLICATIONS"	0	MODERATE	N		POSSIBLE	RECOVERED/RESOLVED	N	N	N	N	N	N	N	TREATMENT	3/30/2013	3/19/2013	3/19/2013	121	110	110
CDISCPILOT01	AE	01-710-1166	3	E07	SYNCOPE	SYNCOPE	0	SYNCOPE	0	HLT_0440	0	HLGT_0310	0	NERVOUS SYSTEM DISORDERS	0	NERVOUS SYSTEM DISORDERS	0	MODERATE	N		POSSIBLE	RECOVERED/RESOLVED	N	N	N	N	N	N	N	TREATMENT	3/30/2013	3/19/2013	3/19/2013	121	110	110
CDISCPILOT01	AE	01-710-1166	5	E08	SYNCOPE	SYNCOPE	0	SYNCOPE	0	HLT_0440	0	HLGT_0310	0	NERVOUS SYSTEM DISORDERS	0	NERVOUS SYSTEM DISORDERS	0	MODERATE	N		POSSIBLE	RECOVERED/RESOLVED	N	N	N	N	Y	N	N	TREATMENT	3/30/2013	3/20/2013	3/20/2013	121	111	111
CDISCPILOT01	AE	01-710-1183	2	E08	ATRIOVENTRICULAR BLOCK FIRST DEGREE	FIRST DEGREE ATRIOVENTRICULAR BLOCK	0	ATRIOVENTRICULAR BLOCK FIRST DEGREE	0	HLT_0419	0	HLGT_0464	0	CARDIAC DISORDERS	0	CARDIAC DISORDERS	0	MILD	N		POSSIBLE	NOT RECOVERED/NOT RESOLVED	N	N	N	N	N	N	N	TREATMENT	3/10/2014	3/10/2014		115	115	0
CDISCPILOT01	AE	01-710-1183	1	E07	SINUS BRADYCARDIA	SINUS BRADYCARDIA	0	SINUS BRADYCARDIA	0	HLT_0644	0	HLGT_0500	0	CARDIAC DISORDERS	0	CARDIAC DISORDERS	0	MODERATE	N		POSSIBLE	NOT RECOVERED/NOT RESOLVED	N	N	N	N	N	N	N	TREATMENT	3/10/2014	3/10/2014		115	115	0
CDISCPILOT01	AE	01-710-1187	1	E03	APPLICATION SITE IRRITATION	APPLICATION SITE IRRITATION	0	APPLICATION SITE IRRITATION	0	HLT_0061	0	HLGT_0346	0	GENERAL DISORDERS AND ADMINISTRATION SITE CONDITIONS	0	GENERAL DISORDERS AND ADMINISTRATION SITE CONDITIONS	0	MILD	N		POSSIBLE	NOT RECOVERED/NOT RESOLVED	N	N	N	N	N	N	N	TREATMENT	12/23/2012	12/23/2012		44	44	0
CDISCPILOT01	AE	01-710-1235	3	E03	APPLICATION SITE PRURITUS	APPLICATION SITE ITCHING	0	APPLICATION SITE PRURITUS	0	HLT_0317	0	HLGT_0338	0	GENERAL DISORDERS AND ADMINISTRATION SITE CONDITIONS	0	GENERAL DISORDERS AND ADMINISTRATION SITE CONDITIONS	0	MILD	N		POSSIBLE	NOT RECOVERED/NOT RESOLVED	N	N	N	N	N	N	N	TREATMENT	2/12/2013	1/29/2013		140	126	0
CDISCPILOT01	AE	01-710-1235	1	E01	COUGH	COUGH	0	COUGH	0	HLT_0701	0	HLGT_0280	0	"RESPIRATORY, THORACIC AND MEDIASTINAL DISORDERS"	0	"RESPIRATORY, THORACIC AND MEDIASTINAL DISORDERS"	0	MODERATE	N		NONE	RECOVERED/RESOLVED	N	N	N	N	N	N	N	TREATMENT	12/19/2012	11/22/2012	12/14/2012	85	58	80
CDISCPILOT01	AE	01-710-1235	2	E02	SHOULDER PAIN	SHOULDER PAIN	0	SHOULDER PAIN	0	HLT_0527	0	HLGT_0288	0	MUSCULOSKELETAL AND CONNECTIVE TISSUE DISORDERS	0	MUSCULOSKELETAL AND CONNECTIVE TISSUE DISORDERS	0	MILD	N		NONE	NOT RECOVERED/NOT RESOLVED	N	N	N	N	N	N	N	TREATMENT	1/15/2013	1/13/2013		112	110	0
CDISCPILOT01	AE	01-710-1249	3	E07	ERYTHEMA	ERYTHEMA	0	ERYTHEMA	0	HLT_0284	0	HLGT_0192	0	SKIN AND SUBCUTANEOUS TISSUE DISORDERS	0	SKIN AND SUBCUTANEOUS TISSUE DISORDERS	0	MILD	N		POSSIBLE	NOT RECOVERED/NOT RESOLVED	N	N	N	N	N	N	N	TREATMENT	3/22/2014	2/23/2014		85	58	0
CDISCPILOT01	AE	01-710-1249	1	E05	PRURITUS	ITCHY	0	PRURITUS	0	HLT_0778	0	HLGT_0695	0	SKIN AND SUBCUTANEOUS TISSUE DISORDERS	0	SKIN AND SUBCUTANEOUS TISSUE DISORDERS	0	MILD	N		POSSIBLE	RECOVERED/RESOLVED	N	N	N	N	N	N	N	TREATMENT	2/22/2014	2/11/2014	2/11/2014	57	46	46
CDISCPILOT01	AE	01-710-1249	2	E06	PRURITUS	ITCHY	0	PRURITUS	0	HLT_0778	0	HLGT_0695	0	SKIN AND SUBCUTANEOUS TISSUE DISORDERS	0	SKIN AND SUBCUTANEOUS TISSUE DISORDERS	0	MILD	N		POSSIBLE	RECOVERED/RESOLVED	N	N	N	N	N	N	N	TREATMENT	2/22/2014	2/18/2014	2/18/2014	57	53	53
CDISCPILOT01	AE	01-710-1249	4	E08	PRURITUS	PRURITUS	0	PRURITUS	0	HLT_0778	0	HLGT_0695	0	SKIN AND SUBCUTANEOUS TISSUE DISORDERS	0	SKIN AND SUBCUTANEOUS TISSUE DISORDERS	0	MODERATE	N		POSSIBLE	NOT RECOVERED/NOT RESOLVED	N	N	N	N	N	N	N	TREATMENT	5/17/2014	4/24/2014		141	118	0
CDISCPILOT01	AE	01-710-1264	5	E12	CHILLS	CHILLS	0	CHILLS	0	HLT_0586	0	HLGT_0161	0	GENERAL DISORDERS AND ADMINISTRATION SITE CONDITIONS	0	GENERAL DISORDERS AND ADMINISTRATION SITE CONDITIONS	0	MODERATE	N		POSSIBLE	RECOVERED/RESOLVED	N	N	N	N	N	N	N	TREATMENT	10/1/2013	9/29/2013	9/29/2013	111	109	109
CDISCPILOT01	AE	01-710-1264	7	E09	CHILLS	CHILLS	0	CHILLS	0	HLT_0586	0	HLGT_0161	0	GENERAL DISORDERS AND ADMINISTRATION SITE CONDITIONS	0	GENERAL DISORDERS AND ADMINISTRATION SITE CONDITIONS	0	MODERATE	N		POSSIBLE	RECOVERED/RESOLVED	N	N	N	N	N	N	N	TREATMENT	10/12/2013	10/9/2013	10/9/2013	122	119	119
CDISCPILOT01	AE	01-710-1264	9	E11	CHILLS	CHILLS	0	CHILLS	0	HLT_0586	0	HLGT_0161	0	GENERAL DISORDERS AND ADMINISTRATION SITE CONDITIONS	0	GENERAL DISORDERS AND ADMINISTRATION SITE CONDITIONS	0	MODERATE	N		POSSIBLE	RECOVERED/RESOLVED	N	N	N	N	N	N	N	TREATMENT	10/12/2013	10/11/2013	10/11/2013	122	121	121
CDISCPILOT01	AE	01-710-1264	4	E07	COLD SWEAT	COLD SWEAT	0	COLD SWEAT	0	HLT_0124	0	HLGT_0208	0	SKIN AND SUBCUTANEOUS TISSUE DISORDERS	0	SKIN AND SUBCUTANEOUS TISSUE DISORDERS	0	MODERATE	N		POSSIBLE	RECOVERED/RESOLVED	N	N	N	N	N	N	N	TREATMENT	10/1/2013	9/29/2013	9/29/2013	111	109	109
CDISCPILOT01	AE	01-710-1264	6	E08	COLD SWEAT	COLD SWEAT	0	COLD SWEAT	0	HLT_0124	0	HLGT_0208	0	SKIN AND SUBCUTANEOUS TISSUE DISORDERS	0	SKIN AND SUBCUTANEOUS TISSUE DISORDERS	0	MODERATE	N		POSSIBLE	RECOVERED/RESOLVED	N	N	N	N	N	N	N	TREATMENT	10/12/2013	10/9/2013	10/9/2013	122	119	119
CDISCPILOT01	AE	01-710-1264	8	E10	COLD SWEAT	COLD SWEAT	0	COLD SWEAT	0	HLT_0124	0	HLGT_0208	0	SKIN AND SUBCUTANEOUS TISSUE DISORDERS	0	SKIN AND SUBCUTANEOUS TISSUE DISORDERS	0	MODERATE	N		POSSIBLE	RECOVERED/RESOLVED	N	N	N	N	N	N	N	TREATMENT	10/12/2013	10/11/2013	10/11/2013	122	121	121
CDISCPILOT01	AE	01-710-1264	1	E13	DIARRHOEA	DIARRHEA	0	DIARRHOEA	0	HLT_0148	0	HLGT_0588	0	GASTROINTESTINAL DISORDERS	0	GASTROINTESTINAL DISORDERS	0	MILD	N		POSSIBLE	RECOVERED/RESOLVED	N	N	N	N	N	N	N	TREATMENT	7/11/2013	7/3/2013	7/5/2013	29	21	23
CDISCPILOT01	AE	01-710-1264	2	E05	PRURITUS	PRURITUS	0	PRURITUS	0	HLT_0778	0	HLGT_0695	0	SKIN AND SUBCUTANEOUS TISSUE DISORDERS	0	SKIN AND SUBCUTANEOUS TISSUE DISORDERS	0	MILD	N		POSSIBLE	NOT RECOVERED/NOT RESOLVED	N	N	N	N	N	N	N	TREATMENT	9/3/2013	8/21/2013		83	70	0
CDISCPILOT01	AE	01-710-1264	3	E06	RASH	RASH	0	RASH	0	HLT_0762	0	HLGT_0198	0	SKIN AND SUBCUTANEOUS TISSUE DISORDERS	0	SKIN AND SUBCUTANEOUS TISSUE DISORDERS	0	MILD	N		POSSIBLE	NOT RECOVERED/NOT RESOLVED	N	N	N	N	N	N	N	TREATMENT	9/3/2013	8/21/2013		83	70	0
CDISCPILOT01	AE	01-710-1270	1	E04	ERYTHEMA	ERYTHEMA	0	ERYTHEMA	0	HLT_0284	0	HLGT_0192	0	SKIN AND SUBCUTANEOUS TISSUE DISORDERS	0	SKIN AND SUBCUTANEOUS TISSUE DISORDERS	0	MODERATE	N		POSSIBLE	NOT RECOVERED/NOT RESOLVED	N	N	N	N	N	N	N	TREATMENT	3/1/2014	2/23/2014		18	12	0
CDISCPILOT01	AE	01-710-1270	2	E05	PRURITUS	ITCHING	0	PRURITUS	0	HLT_0778	0	HLGT_0695	0	SKIN AND SUBCUTANEOUS TISSUE DISORDERS	0	SKIN AND SUBCUTANEOUS TISSUE DISORDERS	0	MODERATE	N		POSSIBLE	NOT RECOVERED/NOT RESOLVED	N	N	N	N	N	N	N	TREATMENT	3/1/2014	2/23/2014		18	12	0
CDISCPILOT01	AE	01-710-1271	3	E07	ATRIAL FIBRILLATION	PAROXYSMAL ATRIAL FIBRILLATION	0	ATRIAL FIBRILLATION	0	HLT_0365	0	HLGT_0012	0	CARDIAC DISORDERS	0	CARDIAC DISORDERS	0	MODERATE	N		POSSIBLE	RECOVERED/RESOLVED	N	N	N	N	Y	Y	N	TREATMENT	12/2/2012	11/21/2012	11/26/2012	67	56	61
CDISCPILOT01	AE	01-710-1271	4	E06	CARDIAC FAILURE CONGESTIVE	CONGESTIVE HEART FAILURE	0	CARDIAC FAILURE CONGESTIVE	0	HLT_0511	0	HLGT_0413	0	CARDIAC DISORDERS	0	CARDIAC DISORDERS	0	MODERATE	N		POSSIBLE	NOT RECOVERED/NOT RESOLVED	N	N	N	N	Y	Y	N	TREATMENT	12/2/2012	11/22/2012		67	57	0
CDISCPILOT01	AE	01-710-1271	1	E04	DYSPNOEA	SHORTNESS OF BREATH	0	DYSPNOEA	0	HLT_0296	0	HLGT_0255	0	"RESPIRATORY, THORACIC AND MEDIASTINAL DISORDERS"	0	"RESPIRATORY, THORACIC AND MEDIASTINAL DISORDERS"	0	MODERATE	N		POSSIBLE	RECOVERED/RESOLVED	N	N	N	N	Y	N	N	TREATMENT	12/2/2012	11/21/2012	11/21/2012	67	56	56
CDISCPILOT01	AE	01-710-1271	5	E08	HYPONATRAEMIA	HYPONATREMIA	0	HYPONATRAEMIA	0	HLT_0688	0	HLGT_0102	0	METABOLISM AND NUTRITION DISORDERS	0	METABOLISM AND NUTRITION DISORDERS	0	MODERATE	N		REMOTE	RECOVERED/RESOLVED	N	N	N	N	Y	N	N	TREATMENT	12/2/2012	11/22/2012	11/26/2012	67	57	61
CDISCPILOT01	AE	01-710-1271	2	E05	MYOCARDIAL INFARCTION	MYOCARDIAL INFARCT	0	MYOCARDIAL INFARCTION	0	HLT_0649	0	HLGT_0688	0	CARDIAC DISORDERS	0	CARDIAC DISORDERS	0	SEVERE	N		POSSIBLE	RECOVERED/RESOLVED	N	N	N	N	Y	Y	N	TREATMENT	12/2/2012	11/21/2012	11/21/2012	67	56	56
CDISCPILOT01	AE	01-710-1278	7	E03	APPLICATION SITE ERYTHEMA	APPLICATION SITE ERYTHEMA	0	APPLICATION SITE ERYTHEMA	0	HLT_0617	0	HLGT_0152	0	GENERAL DISORDERS AND ADMINISTRATION SITE CONDITIONS	0	GENERAL DISORDERS AND ADMINISTRATION SITE CONDITIONS	0	MILD	N		POSSIBLE	RECOVERED/RESOLVED	N	N	N	N	N	N	N	TREATMENT	3/10/2013	2/24/2013	3/3/2013	77	63	70
CDISCPILOT01	AE	01-710-1278	4	E04	BURNING SENSATION	BURNING SENSATION	0	BURNING SENSATION	0	HLT_0775	0	HLGT_0456	0	NERVOUS SYSTEM DISORDERS	0	NERVOUS SYSTEM DISORDERS	0	MODERATE	N		POSSIBLE	RECOVERED/RESOLVED	N	N	N	N	N	N	N	TREATMENT	3/3/2013	2/24/2013	2/26/2013	70	63	65
CDISCPILOT01	AE	01-710-1278	6	E02	RASH	RASH	0	RASH	0	HLT_0762	0	HLGT_0198	0	SKIN AND SUBCUTANEOUS TISSUE DISORDERS	0	SKIN AND SUBCUTANEOUS TISSUE DISORDERS	0	MILD	N		POSSIBLE	RECOVERED/RESOLVED	N	N	N	N	N	N	N	TREATMENT	3/10/2013	2/7/2013	3/3/2013	77	46	70
CDISCPILOT01	AE	01-710-1278	1	E01	SOMNOLENCE	DROWSINESS	0	SOMNOLENCE	0	HLT_0160	0	HLGT_0254	0	NERVOUS SYSTEM DISORDERS	0	NERVOUS SYSTEM DISORDERS	0	MILD	N		REMOTE	RECOVERED/RESOLVED	N	N	N	N	N	N	N	TREATMENT	1/24/2013	1/13/2013	1/19/2013	32	21	27
CDISCPILOT01	AE	01-710-1278	5	E05	VOMITING	VOMITING	0	VOMITING	0	HLT_0016	0	HLGT_0350	0	GASTROINTESTINAL DISORDERS	0	GASTROINTESTINAL DISORDERS	0	MILD	N		REMOTE	RECOVERED/RESOLVED	N	N	N	N	N	N	N	TREATMENT	3/3/2013	3/2/2013	3/2/2013	70	69	69
CDISCPILOT01	AE	01-710-1300	4	E05	APPLICATION SITE IRRITATION	APPLICATION SITE BURNING	0	APPLICATION SITE IRRITATION	0	HLT_0061	0	HLGT_0346	0	GENERAL DISORDERS AND ADMINISTRATION SITE CONDITIONS	0	GENERAL DISORDERS AND ADMINISTRATION SITE CONDITIONS	0	MILD	N		POSSIBLE	NOT RECOVERED/NOT RESOLVED	N	N	N	N	N	N	N	TREATMENT	2/19/2013	2/13/2013		67	61	0
CDISCPILOT01	AE	01-710-1300	3	E04	BLISTER	BLISTERS	0	BLISTER	0	HLT_0752	0	HLGT_0267	0	SKIN AND SUBCUTANEOUS TISSUE DISORDERS	0	SKIN AND SUBCUTANEOUS TISSUE DISORDERS	0	MODERATE	N		POSSIBLE	NOT RECOVERED/NOT RESOLVED	N	N	N	N	N	N	N	TREATMENT	2/11/2013	2/10/2013		59	58	0
CDISCPILOT01	AE	01-710-1300	2	E03	ERYTHEMA	ERYTHEMA	0	ERYTHEMA	0	HLT_0284	0	HLGT_0192	0	SKIN AND SUBCUTANEOUS TISSUE DISORDERS	0	SKIN AND SUBCUTANEOUS TISSUE DISORDERS	0	MODERATE	N		POSSIBLE	NOT RECOVERED/NOT RESOLVED	N	N	N	N	N	N	N	TREATMENT	2/11/2013	2/10/2013		59	58	0
CDISCPILOT01	AE	01-710-1300	1	E02	PRURITUS	ITCHING	0	PRURITUS	0	HLT_0778	0	HLGT_0695	0	SKIN AND SUBCUTANEOUS TISSUE DISORDERS	0	SKIN AND SUBCUTANEOUS TISSUE DISORDERS	0	MODERATE	N		POSSIBLE	NOT RECOVERED/NOT RESOLVED	N	N	N	N	N	N	N	TREATMENT	2/11/2013	1/31/2013		59	48	0
CDISCPILOT01	AE	01-710-1314	2	E01	NASOPHARYNGITIS	COMMON COLD	0	NASOPHARYNGITIS	0	HLT_0036	0	HLGT_0709	0	INFECTIONS AND INFESTATIONS	0	INFECTIONS AND INFESTATIONS	0	MILD	N		NONE	RECOVERED/RESOLVED	N	N	N	N	N	N	N	TREATMENT	5/25/2013	5/20/2013	5/24/2013	32	27	31
CDISCPILOT01	AE	01-710-1315	7	E05	ERYTHEMA	ERYTHEMA	0	ERYTHEMA	0	HLT_0284	0	HLGT_0192	0	SKIN AND SUBCUTANEOUS TISSUE DISORDERS	0	SKIN AND SUBCUTANEOUS TISSUE DISORDERS	0	MODERATE	N		POSSIBLE	RECOVERED/RESOLVED	N	N	N	N	N	N	N	TREATMENT	7/16/2013	6/18/2013	7/7/2013	140	112	131
CDISCPILOT01	AE	01-710-1315	1	E02	HEADACHE	HEADACHE	0	HEADACHE	0	HLT_0064	0	HLGT_0344	0	NERVOUS SYSTEM DISORDERS	0	NERVOUS SYSTEM DISORDERS	0	MILD	N		REMOTE	RECOVERED/RESOLVED	N	N	N	N	N	N	N	SCREENING	2/27/2013	2/26/2013	2/26/2013	1	-1	-1
CDISCPILOT01	AE	01-710-1315	5	E03	PRURITUS	PRURITUS	0	PRURITUS	0	HLT_0778	0	HLGT_0695	0	SKIN AND SUBCUTANEOUS TISSUE DISORDERS	0	SKIN AND SUBCUTANEOUS TISSUE DISORDERS	0	MILD	N		POSSIBLE	RECOVERED/RESOLVED	N	N	N	N	N	N	N	TREATMENT	7/16/2013	5/14/2013	7/7/2013	140	77	131
CDISCPILOT01	AE	01-710-1315	6	E04	RASH	RASH	0	RASH	0	HLT_0762	0	HLGT_0198	0	SKIN AND SUBCUTANEOUS TISSUE DISORDERS	0	SKIN AND SUBCUTANEOUS TISSUE DISORDERS	0	MODERATE	N		POSSIBLE	RECOVERED/RESOLVED	N	N	N	N	N	N	N	TREATMENT	7/16/2013	6/18/2013	7/7/2013	140	112	131
CDISCPILOT01	AE	01-710-1354	1	E09	ERYTHEMA	ERYTHEMA	0	ERYTHEMA	0	HLT_0284	0	HLGT_0192	0	SKIN AND SUBCUTANEOUS TISSUE DISORDERS	0	SKIN AND SUBCUTANEOUS TISSUE DISORDERS	0	MILD	N		POSSIBLE	NOT RECOVERED/NOT RESOLVED	N	N	N	N	N	N	N	TREATMENT	1/6/2013	12/30/2012		57	50	0
CDISCPILOT01	AE	01-710-1354	2	E10	PRURITUS	PRURITUS	0	PRURITUS	0	HLT_0778	0	HLGT_0695	0	SKIN AND SUBCUTANEOUS TISSUE DISORDERS	0	SKIN AND SUBCUTANEOUS TISSUE DISORDERS	0	MILD	N		POSSIBLE	NOT RECOVERED/NOT RESOLVED	N	N	N	N	N	N	N	TREATMENT	3/2/2013	2/14/2013		112	96	0
CDISCPILOT01	AE	01-710-1358	3	E06	APPLICATION SITE DESQUAMATION	APPLICATION SITE DESQUAMATION	0	APPLICATION SITE DESQUAMATION	0	HLT_0351	0	HLGT_0193	0	GENERAL DISORDERS AND ADMINISTRATION SITE CONDITIONS	0	GENERAL DISORDERS AND ADMINISTRATION SITE CONDITIONS	0	MILD	N		POSSIBLE	NOT RECOVERED/NOT RESOLVED	N	N	N	N	N	N	N	TREATMENT	2/6/2013	1/24/2013		143	130	0
CDISCPILOT01	AE	01-710-1358	2	E05	PRURITUS	ITCHY	0	PRURITUS	0	HLT_0778	0	HLGT_0695	0	SKIN AND SUBCUTANEOUS TISSUE DISORDERS	0	SKIN AND SUBCUTANEOUS TISSUE DISORDERS	0	MILD	N		POSSIBLE	NOT RECOVERED/NOT RESOLVED	N	N	N	N	N	N	N	TREATMENT	1/9/2013	12/22/2012		115	97	0
CDISCPILOT01	AE	01-710-1358	1	E04	RASH	RASH	0	RASH	0	HLT_0762	0	HLGT_0198	0	SKIN AND SUBCUTANEOUS TISSUE DISORDERS	0	SKIN AND SUBCUTANEOUS TISSUE DISORDERS	0	MILD	N		POSSIBLE	NOT RECOVERED/NOT RESOLVED	N	N	N	N	N	N	N	TREATMENT	1/9/2013	12/22/2012		115	97	0
CDISCPILOT01	AE	01-710-1368	2	E06	DELUSION	DELUSIONS	0	DELUSION	0	HLT_0198	0	HLGT_0565	0	PSYCHIATRIC DISORDERS	0	PSYCHIATRIC DISORDERS	0	MILD	N		REMOTE	NOT RECOVERED/NOT RESOLVED	N	N	N	N	N	N	N	TREATMENT	4/9/2014	3/26/2014		169	155	0
CDISCPILOT01	AE	01-710-1368	4	E05	HIP FRACTURE	FRACTURED HIP	0	HIP FRACTURE	0	HLT_0097	0	HLGT_0131	0	"INJURY, POISONING AND PROCEDURAL COMPLICATIONS"	0	"INJURY, POISONING AND PROCEDURAL COMPLICATIONS"	0	SEVERE	N		NONE	RECOVERED/RESOLVED	N	N	N	N	Y	N	N	TREATMENT	4/24/2014	12/25/2013	4/24/2014	184	64	184
CDISCPILOT01	AE	01-710-1368	3	E08	PSYCHOMOTOR HYPERACTIVITY	INCREASED ACTIVITY	0	PSYCHOMOTOR HYPERACTIVITY	0	HLT_0383	0	HLGT_0277	0	NERVOUS SYSTEM DISORDERS	0	NERVOUS SYSTEM DISORDERS	0	MILD	N		REMOTE	NOT RECOVERED/NOT RESOLVED	N	N	N	N	N	N	N	TREATMENT	4/9/2014	3/26/2014		169	155	0
CDISCPILOT01	AE	01-710-1385	7	E12	ATRIAL FIBRILLATION	ATRIAL FIBRILLATION	0	ATRIAL FIBRILLATION	0	HLT_0365	0	HLGT_0012	0	CARDIAC DISORDERS	0	CARDIAC DISORDERS	0	MODERATE	N		NONE	NOT RECOVERED/NOT RESOLVED	N	N	N	N	N	N	N	TREATMENT	2/18/2013	2/18/2013		113	113	0
CDISCPILOT01	AE	01-710-1385	3	E08	ATRIOVENTRICULAR BLOCK FIRST DEGREE	FIRST DEGREE ATRIOVENTRICULAR BLOCK	0	ATRIOVENTRICULAR BLOCK FIRST DEGREE	0	HLT_0419	0	HLGT_0464	0	CARDIAC DISORDERS	0	CARDIAC DISORDERS	0	MILD	N		NONE	NOT RECOVERED/NOT RESOLVED	N	N	N	N	N	N	N	TREATMENT	11/26/2012	11/26/2012		29	29	0
CDISCPILOT01	AE	01-710-1385	6	E11	BLISTER	BLISTERS	0	BLISTER	0	HLT_0752	0	HLGT_0267	0	SKIN AND SUBCUTANEOUS TISSUE DISORDERS	0	SKIN AND SUBCUTANEOUS TISSUE DISORDERS	0	MILD	N		POSSIBLE	NOT RECOVERED/NOT RESOLVED	N	N	N	N	N	N	N	TREATMENT	1/21/2013	12/27/2012		85	60	0
CDISCPILOT01	AE	01-710-1385	8	E13	ELECTROCARDIOGRAM T WAVE AMPLITUDE DECREASED	T WAVE FLATTENING OF	0	ELECTROCARDIOGRAM T WAVE AMPLITUDE DECREASED	0	HLT_0037	0	HLGT_0030	0	INVESTIGATIONS	0	INVESTIGATIONS	0	MILD	N		REMOTE	NOT RECOVERED/NOT RESOLVED	N	N	N	N	N	N	N	TREATMENT	2/18/2013	2/18/2013		113	113	0
CDISCPILOT01	AE	01-710-1385	4	E09	PRURITUS	ITCHING	0	PRURITUS	0	HLT_0778	0	HLGT_0695	0	SKIN AND SUBCUTANEOUS TISSUE DISORDERS	0	SKIN AND SUBCUTANEOUS TISSUE DISORDERS	0	MILD	N		POSSIBLE	NOT RECOVERED/NOT RESOLVED	N	N	N	N	N	N	N	TREATMENT	12/25/2012	12/18/2012		58	51	0
CDISCPILOT01	AE	01-710-1385	5	E10	RASH	RASH	0	RASH	0	HLT_0762	0	HLGT_0198	0	SKIN AND SUBCUTANEOUS TISSUE DISORDERS	0	SKIN AND SUBCUTANEOUS TISSUE DISORDERS	0	MILD	N		POSSIBLE	NOT RECOVERED/NOT RESOLVED	N	N	N	N	N	N	N	TREATMENT	1/21/2013	12/27/2012		85	60	0
CDISCPILOT01	AE	01-710-1385	2	E06	SUPRAVENTRICULAR TACHYCARDIA	SUPRAVENTRICULAR TACHYCARDIA	0	SUPRAVENTRICULAR TACHYCARDIA	0	HLT_0692	0	HLGT_0619	0	CARDIAC DISORDERS	0	CARDIAC DISORDERS	0	MODERATE	N		NONE	RECOVERED/RESOLVED	N	N	N	N	N	N	N	TREATMENT	11/26/2012	11/12/2012	11/13/2012	29	15	16
CDISCPILOT01	AE	01-710-1408	4	E07	ERYTHEMA	ERYTHEMA	0	ERYTHEMA	0	HLT_0284	0	HLGT_0192	0	SKIN AND SUBCUTANEOUS TISSUE DISORDERS	0	SKIN AND SUBCUTANEOUS TISSUE DISORDERS	0	MILD	N		POSSIBLE	RECOVERED/RESOLVED	N	N	N	N	N	N	N	TREATMENT	6/28/2013	2/24/2013	5/31/2013	175	51	147
CDISCPILOT01	AE	01-710-1408	2	E06	NASOPHARYNGITIS	COLD SYMPTOMS	0	NASOPHARYNGITIS	0	HLT_0036	0	HLGT_0709	0	INFECTIONS AND INFESTATIONS	0	INFECTIONS AND INFESTATIONS	0	MILD	N		NONE	RECOVERED/RESOLVED	N	N	N	N	N	N	N	TREATMENT	2/20/2013	1/31/2013	2/9/2013	47	27	36
CDISCPILOT01	AE	01-711-1012	1	E06	APPLICATION SITE DERMATITIS	APPLICATION SITE RASH	0	APPLICATION SITE DERMATITIS	0	HLT_0343	0	HLGT_0241	0	GENERAL DISORDERS AND ADMINISTRATION SITE CONDITIONS	0	GENERAL DISORDERS AND ADMINISTRATION SITE CONDITIONS	0	MILD	N		PROBABLE	NOT RECOVERED/NOT RESOLVED	N	N	N	N	N	N	N	TREATMENT	4/17/2013	4/16/2013		15	14	0
CDISCPILOT01	AE	01-711-1012	3	E06	APPLICATION SITE DERMATITIS	APPLICATION SITE RASH	0	APPLICATION SITE DERMATITIS	0	HLT_0343	0	HLGT_0241	0	GENERAL DISORDERS AND ADMINISTRATION SITE CONDITIONS	0	GENERAL DISORDERS AND ADMINISTRATION SITE CONDITIONS	0	MODERATE	N		PROBABLE	NOT RECOVERED/NOT RESOLVED	N	N	N	N	N	N	N	TREATMENT	5/2/2013	4/16/2013		30	14	0
CDISCPILOT01	AE	01-711-1012	2	E09	APPLICATION SITE PRURITUS	APPLICATION SITE ITCHING	0	APPLICATION SITE PRURITUS	0	HLT_0317	0	HLGT_0338	0	GENERAL DISORDERS AND ADMINISTRATION SITE CONDITIONS	0	GENERAL DISORDERS AND ADMINISTRATION SITE CONDITIONS	0	MILD	N		PROBABLE	NOT RECOVERED/NOT RESOLVED	N	N	N	N	N	N	N	TREATMENT	4/17/2013	4/16/2013	5/2/2013	15	14	30
CDISCPILOT01	AE	01-711-1012	7	E09	APPLICATION SITE PRURITUS	APPLICATION SITE ITCHING	0	APPLICATION SITE PRURITUS	0	HLT_0317	0	HLGT_0338	0	GENERAL DISORDERS AND ADMINISTRATION SITE CONDITIONS	0	GENERAL DISORDERS AND ADMINISTRATION SITE CONDITIONS	0	MODERATE	N		PROBABLE	RECOVERED/RESOLVED	N	N	N	N	N	N	N	TREATMENT	7/17/2013	4/16/2013	5/2/2013	106	14	30
CDISCPILOT01	AE	01-711-1012	6	E08	APPLICATION SITE URTICARIA	APPLICATION SITE URTICARIA	0	APPLICATION SITE URTICARIA	0	HLT_0196	0	HLGT_0233	0	GENERAL DISORDERS AND ADMINISTRATION SITE CONDITIONS	0	GENERAL DISORDERS AND ADMINISTRATION SITE CONDITIONS	0	MODERATE	N		PROBABLE	RECOVERED/RESOLVED	N	N	N	N	N	N	N	TREATMENT	5/2/2013	4/29/2013	5/1/2013	30	27	29
CDISCPILOT01	AE	01-711-1012	5	E07	NASOPHARYNGITIS	COLD SYMPTOMS	0	NASOPHARYNGITIS	0	HLT_0036	0	HLGT_0709	0	INFECTIONS AND INFESTATIONS	0	INFECTIONS AND INFESTATIONS	0	MODERATE	N		NONE	NOT RECOVERED/NOT RESOLVED	N	N	N	N	N	N	N	TREATMENT	5/2/2013	4/27/2013		30	25	0
CDISCPILOT01	AE	01-711-1036	4	E04	EAR INFECTION	EAR INFECTION	0	EAR INFECTION	0	HLT_0757	0	HLGT_0760	0	INFECTIONS AND INFESTATIONS	0	INFECTIONS AND INFESTATIONS	0	MILD	N		NONE	RECOVERED/RESOLVED	N	N	N	N	N	N	N	TREATMENT	8/29/2012	8/4/2012	8/12/2012	32	7	15
CDISCPILOT01	AE	01-711-1036	3	E05	GLOSSITIS	GLOSSITIS	0	GLOSSITIS	0	HLT_0250	0	HLGT_0427	0	GASTROINTESTINAL DISORDERS	0	GASTROINTESTINAL DISORDERS	0	MILD	N		NONE	NOT RECOVERED/NOT RESOLVED	N	N	N	N	N	N	N	TREATMENT	8/12/2012	8/12/2012		15	15	0
CDISCPILOT01	AE	01-711-1036	1	E03	HEADACHE	INTERMITTENT HEADACHE	0	HEADACHE	0	HLT_0064	0	HLGT_0344	0	NERVOUS SYSTEM DISORDERS	0	NERVOUS SYSTEM DISORDERS	0	MILD	N		NONE	NOT RECOVERED/NOT RESOLVED	N	N	N	N	N	N	N	TREATMENT	7/29/2012	7/29/2012		1	1	0
CDISCPILOT01	AE	01-711-1143	8	E19	APPLICATION SITE DERMATITIS	APPLICATION SITE RASH	0	APPLICATION SITE DERMATITIS	0	HLT_0343	0	HLGT_0241	0	GENERAL DISORDERS AND ADMINISTRATION SITE CONDITIONS	0	GENERAL DISORDERS AND ADMINISTRATION SITE CONDITIONS	0	MODERATE	N		PROBABLE	NOT RECOVERED/NOT RESOLVED	N	N	N	N	N	N	N	TREATMENT	5/28/2013	5/18/2013		56	46	0
CDISCPILOT01	AE	01-711-1143	13	E22	CERUMEN IMPACTION	CERUMEN IMPACTION	0	CERUMEN IMPACTION	0	HLT_0018	0	HLGT_0158	0	EAR AND LABYRINTH DISORDERS	0	EAR AND LABYRINTH DISORDERS	0	MILD	N		NONE	NOT RECOVERED/NOT RESOLVED	N	N	N	N	N	N	N	TREATMENT	6/1/2013	6/1/2013		60	60	0
CDISCPILOT01	AE	01-711-1143	12	E23	CONJUNCTIVAL HAEMORRHAGE	SUBCONJUNCTIVAL HEMORRHAGE	0	CONJUNCTIVAL HAEMORRHAGE	0	HLT_0013	0	HLGT_0720	0	EYE DISORDERS	0	EYE DISORDERS	0	MODERATE	N		REMOTE	NOT RECOVERED/NOT RESOLVED	N	N	N	N	N	N	N	TREATMENT	6/1/2013	5/30/2013		60	58	0
CDISCPILOT01	AE	01-711-1143	3	E18	NASOPHARYNGITIS	COLD	0	NASOPHARYNGITIS	0	HLT_0036	0	HLGT_0709	0	INFECTIONS AND INFESTATIONS	0	INFECTIONS AND INFESTATIONS	0	SEVERE	N		NONE	NOT RECOVERED/NOT RESOLVED	N	N	N	N	N	N	N	TREATMENT	4/29/2013	4/28/2013	5/11/2013	27	26	39
