"STUDYID","RDOMAIN","USUBJID","IDVAR","IDVARVAL","RELTYPE","RELID"
"CDISCPILOT01","AE","01-701-1023","AESEQ","2","","01-701-1023-E09"
"CDISCPILOT01","AE","01-701-1047","AESEQ","4","","01-701-1047-E09"
"CDISCPILOT01","AE","01-701-1111","AESEQ","7","","01-701-1111-E16"
"CDISCPILOT01","AE","01-701-1115","AESEQ","7","","01-701-1115-E13"
"CDISCPILOT01","AE","01-701-1146","AESEQ","6","","01-701-1146-E13"
"CDISCPILOT01","AE","01-701-1146","AESEQ","8","","01-701-1146-E13"
"CDISCPILOT01","AE","01-701-1180","AESEQ","9","","01-701-1180-E07"
"CDISCPILOT01","AE","01-701-1181","AESEQ","1","","01-701-1181-E16"
"CDISCPILOT01","AE","01-701-1188","AESEQ","7","","01-701-1188-E09"
"CDISCPILOT01","AE","01-701-1211","AESEQ","9","","01-701-1211-E11"
"CDISCPILOT01","AE","01-701-1294","AESEQ","6","","01-701-1294-E09"
"CDISCPILOT01","AE","01-701-1302","AESEQ","8","","01-701-1302-E16"
"CDISCPILOT01","AE","01-701-1302","AESEQ","18","","01-701-1302-E16"
"CDISCPILOT01","AE","01-701-1341","AESEQ","5","","01-701-1341-E13"
"CDISCPILOT01","AE","01-701-1444","AESEQ","7","","01-701-1444-E16"
"CDISCPILOT01","AE","01-703-1076","AESEQ","4","","01-703-1076-E08"
"CDISCPILOT01","AE","01-703-1076","AESEQ","7","","01-703-1076-E08"
"CDISCPILOT01","AE","01-703-1086","AESEQ","2","","01-703-1086-E01"
"CDISCPILOT01","AE","01-703-1086","AESEQ","3","","01-703-1086-E01"
"CDISCPILOT01","AE","01-703-1086","AESEQ","6","","01-703-1086-E01"
"CDISCPILOT01","AE","01-703-1119","AESEQ","3","","01-703-1119-E05"
"CDISCPILOT01","AE","01-703-1119","AESEQ","4","","01-703-1119-E05"
"CDISCPILOT01","AE","01-703-1182","AESEQ","3","","01-703-1182-E07"
"CDISCPILOT01","AE","01-703-1182","AESEQ","4","","01-703-1182-E07"
"CDISCPILOT01","AE","01-703-1258","AESEQ","6","","01-703-1258-E08"
"CDISCPILOT01","AE","01-703-1258","AESEQ","7","","01-703-1258-E08"
"CDISCPILOT01","AE","01-703-1403","AESEQ","2","","01-703-1403-E01"
"CDISCPILOT01","AE","01-704-1008","AESEQ","3","","01-704-1008-E05"
"CDISCPILOT01","AE","01-704-1017","AESEQ","7","","01-704-1017-E11"
"CDISCPILOT01","AE","01-704-1025","AESEQ","6","","01-704-1025-E06"
"CDISCPILOT01","AE","01-704-1065","AESEQ","4","","01-704-1065-E12"
"CDISCPILOT01","AE","01-704-1074","AESEQ","2","","01-704-1074-E09"
"CDISCPILOT01","AE","01-704-1093","AESEQ","3","","01-704-1093-E05"
"CDISCPILOT01","AE","01-704-1120","AESEQ","1","","01-704-1120-E01"
"CDISCPILOT01","AE","01-704-1120","AESEQ","3","","01-704-1120-E01"
"CDISCPILOT01","AE","01-704-1241","AESEQ","1","","01-704-1241-E04"
"CDISCPILOT01","AE","01-704-1266","AESEQ","2","","01-704-1266-E10"
"CDISCPILOT01","AE","01-704-1266","AESEQ","12","","01-704-1266-E10"
"CDISCPILOT01","AE","01-704-1323","AESEQ","2","","01-704-1323-E08"
"CDISCPILOT01","AE","01-704-1332","AESEQ","1","","01-704-1332-E01"
"CDISCPILOT01","AE","01-704-1332","AESEQ","5","","01-704-1332-E01"
"CDISCPILOT01","AE","01-704-1445","AESEQ","1","","01-704-1445-E06"
"CDISCPILOT01","AE","01-705-1059","AESEQ","1","","01-705-1059-E02"
"CDISCPILOT01","AE","01-705-1199","AESEQ","2","","01-705-1199-E06"
"CDISCPILOT01","AE","01-705-1281","AESEQ","1","","01-705-1281-E04"
"CDISCPILOT01","AE","01-705-1281","AESEQ","3","","01-705-1281-E04"
"CDISCPILOT01","AE","01-705-1303","AESEQ","2","","01-705-1303-E03"
"CDISCPILOT01","AE","01-705-1303","AESEQ","4","","01-705-1303-E03"
"CDISCPILOT01","AE","01-705-1310","AESEQ","2","","01-705-1310-E03"
"CDISCPILOT01","AE","01-705-1393","AESEQ","3","","01-705-1393-E05"
"CDISCPILOT01","AE","01-706-1049","AESEQ","2","","01-706-1049-E02"
"CDISCPILOT01","AE","01-706-1384","AESEQ","9","","01-706-1384-E01"
"CDISCPILOT01","AE","01-708-1019","AESEQ","2","","01-708-1019-E03"
"CDISCPILOT01","AE","01-708-1032","AESEQ","1","","01-708-1032-E05"
"CDISCPILOT01","AE","01-708-1158","AESEQ","1","","01-708-1158-E05"
"CDISCPILOT01","AE","01-708-1213","AESEQ","2","","01-708-1213-E03"
"CDISCPILOT01","AE","01-708-1216","AESEQ","1","","01-708-1216-E01"
"CDISCPILOT01","AE","01-708-1297","AESEQ","1","","01-708-1297-E02"
"CDISCPILOT01","AE","01-708-1347","AESEQ","6","","01-708-1347-E03"
"CDISCPILOT01","AE","01-708-1353","AESEQ","3","","01-708-1353-E10"
"CDISCPILOT01","AE","01-708-1428","AESEQ","2","","01-708-1428-E01"
"CDISCPILOT01","AE","01-708-1428","AESEQ","5","","01-708-1428-E01"
"CDISCPILOT01","AE","01-709-1007","AESEQ","3","","01-709-1007-E03"
"CDISCPILOT01","AE","01-709-1081","AESEQ","1","","01-709-1081-E05"
"CDISCPILOT01","AE","01-709-1102","AESEQ","1","","01-709-1102-E01"
"CDISCPILOT01","AE","01-709-1102","AESEQ","3","","01-709-1102-E01"
"CDISCPILOT01","AE","01-709-1168","AESEQ","5","","01-709-1168-E03"
"CDISCPILOT01","AE","01-709-1217","AESEQ","11","","01-709-1217-E10"
"CDISCPILOT01","AE","01-709-1238","AESEQ","2","","01-709-1238-E07"
"CDISCPILOT01","AE","01-709-1306","AESEQ","9","","01-709-1306-E03"
"CDISCPILOT01","AE","01-709-1424","AESEQ","1","","01-709-1424-E05"
"CDISCPILOT01","AE","01-710-1002","AESEQ","2","","01-710-1002-E01"
"CDISCPILOT01","AE","01-710-1021","AESEQ","3","","01-710-1021-E02"
"CDISCPILOT01","AE","01-710-1045","AESEQ","9","","01-710-1045-E07"
"CDISCPILOT01","AE","01-710-1053","AESEQ","4","","01-710-1053-E04"
"CDISCPILOT01","AE","01-710-1070","AESEQ","5","","01-710-1070-E12"
"CDISCPILOT01","AE","01-710-1083","AESEQ","1","","01-710-1083-E04"
"CDISCPILOT01","AE","01-710-1137","AESEQ","3","","01-710-1137-E06"
"CDISCPILOT01","AE","01-710-1142","AESEQ","4","","01-710-1142-E05"
"CDISCPILOT01","AE","01-710-1154","AESEQ","1","","01-710-1154-E04"
"CDISCPILOT01","AE","01-710-1154","AESEQ","2","","01-710-1154-E04"
"CDISCPILOT01","AE","01-710-1166","AESEQ","5","","01-710-1166-E08"
"CDISCPILOT01","AE","01-710-1264","AESEQ","4","","01-710-1264-E07"
"CDISCPILOT01","AE","01-710-1270","AESEQ","2","","01-710-1270-E05"
"CDISCPILOT01","AE","01-710-1271","AESEQ","2","","01-710-1271-E05"
"CDISCPILOT01","AE","01-710-1278","AESEQ","6","","01-710-1278-E02"
"CDISCPILOT01","AE","01-710-1300","AESEQ","3","","01-710-1300-E04"
"CDISCPILOT01","AE","01-710-1315","AESEQ","5","","01-710-1315-E03"
"CDISCPILOT01","AE","01-710-1385","AESEQ","7","","01-710-1385-E12"
"CDISCPILOT01","AE","01-711-1012","AESEQ","1","","01-711-1012-E06"
"CDISCPILOT01","AE","01-711-1012","AESEQ","3","","01-711-1012-E06"
"CDISCPILOT01","AE","01-711-1143","AESEQ","14","","01-711-1143-E21"
"CDISCPILOT01","AE","01-711-1433","AESEQ","3","","01-711-1433-E03"
"CDISCPILOT01","AE","01-713-1141","AESEQ","4","","01-713-1141-E05"
"CDISCPILOT01","AE","01-713-1448","AESEQ","3","","01-713-1448-E03"
"CDISCPILOT01","AE","01-714-1068","AESEQ","4","","01-714-1068-E07"
"CDISCPILOT01","AE","01-714-1068","AESEQ","6","","01-714-1068-E07"
"CDISCPILOT01","AE","01-715-1107","AESEQ","3","","01-715-1107-E01"
"CDISCPILOT01","AE","01-715-1321","AESEQ","3","","01-715-1321-E03"
"CDISCPILOT01","AE","01-715-1405","AESEQ","1","","01-715-1405-E02"
"CDISCPILOT01","AE","01-716-1063","AESEQ","6","","01-716-1063-E10"
"CDISCPILOT01","AE","01-716-1071","AESEQ","3","","01-716-1071-E08"
"CDISCPILOT01","AE","01-716-1094","AESEQ","1","","01-716-1094-E07"
"CDISCPILOT01","AE","01-716-1151","AESEQ","2","","01-716-1151-E06"
"CDISCPILOT01","AE","01-716-1189","AESEQ","4","","01-716-1189-E07"
"CDISCPILOT01","AE","01-716-1229","AESEQ","1","","01-716-1229-E01"
"CDISCPILOT01","AE","01-716-1298","AESEQ","6","","01-716-1298-E07"
"CDISCPILOT01","AE","01-716-1373","AESEQ","2","","01-716-1373-E04"
"CDISCPILOT01","AE","01-718-1066","AESEQ","3","","01-718-1066-E08"
"CDISCPILOT01","AE","01-718-1079","AESEQ","2","","01-718-1079-E03"
"CDISCPILOT01","AE","01-718-1079","AESEQ","3","","01-718-1079-E03"
"CDISCPILOT01","AE","01-718-1170","AESEQ","5","","01-718-1170-E03"
"CDISCPILOT01","AE","01-718-1250","AESEQ","9","","01-718-1250-E06"
"CDISCPILOT01","AE","01-718-1250","AESEQ","11","","01-718-1250-E06"
"CDISCPILOT01","AE","01-718-1371","AESEQ","3","","01-718-1371-E08"
"CDISCPILOT01","AE","01-718-1371","AESEQ","6","","01-718-1371-E08"
"CDISCPILOT01","DS","01-701-1023","DSSEQ","1","","01-701-1023-E09"
"CDISCPILOT01","DS","01-701-1047","DSSEQ","1","","01-701-1047-E09"
"CDISCPILOT01","DS","01-701-1111","DSSEQ","1","","01-701-1111-E16"
"CDISCPILOT01","DS","01-701-1115","DSSEQ","1","","01-701-1115-E13"
"CDISCPILOT01","DS","01-701-1146","DSSEQ","1","","01-701-1146-E13"
"CDISCPILOT01","DS","01-701-1180","DSSEQ","1","","01-701-1180-E07"
"CDISCPILOT01","DS","01-701-1181","DSSEQ","1","","01-701-1181-E16"
"CDISCPILOT01","DS","01-701-1188","DSSEQ","1","","01-701-1188-E09"
"CDISCPILOT01","DS","01-701-1211","DSSEQ","1","","01-701-1211-E11"
"CDISCPILOT01","DS","01-701-1294","DSSEQ","1","","01-701-1294-E09"
"CDISCPILOT01","DS","01-701-1302","DSSEQ","1","","01-701-1302-E16"
"CDISCPILOT01","DS","01-701-1341","DSSEQ","1","","01-701-1341-E13"
"CDISCPILOT01","DS","01-701-1444","DSSEQ","1","","01-701-1444-E16"
"CDISCPILOT01","DS","01-703-1076","DSSEQ","1","","01-703-1076-E08"
"CDISCPILOT01","DS","01-703-1086","DSSEQ","1","","01-703-1086-E01"
"CDISCPILOT01","DS","01-703-1119","DSSEQ","1","","01-703-1119-E05"
"CDISCPILOT01","DS","01-703-1182","DSSEQ","1","","01-703-1182-E07"
"CDISCPILOT01","DS","01-703-1258","DSSEQ","1","","01-703-1258-E08"
"CDISCPILOT01","DS","01-703-1403","DSSEQ","1","","01-703-1403-E01"
"CDISCPILOT01","DS","01-704-1008","DSSEQ","1","","01-704-1008-E05"
"CDISCPILOT01","DS","01-704-1017","DSSEQ","1","","01-704-1017-E11"
"CDISCPILOT01","DS","01-704-1025","DSSEQ","1","","01-704-1025-E06"
"CDISCPILOT01","DS","01-704-1065","DSSEQ","1","","01-704-1065-E12"
"CDISCPILOT01","DS","01-704-1074","DSSEQ","1","","01-704-1074-E09"
"CDISCPILOT01","DS","01-704-1093","DSSEQ","1","","01-704-1093-E05"
"CDISCPILOT01","DS","01-704-1120","DSSEQ","1","","01-704-1120-E01"
"CDISCPILOT01","DS","01-704-1241","DSSEQ","1","","01-704-1241-E04"
"CDISCPILOT01","DS","01-704-1266","DSSEQ","1","","01-704-1266-E10"
"CDISCPILOT01","DS","01-704-1323","DSSEQ","1","","01-704-1323-E08"
"CDISCPILOT01","DS","01-704-1332","DSSEQ","1","","01-704-1332-E01"
"CDISCPILOT01","DS","01-704-1445","DSSEQ","1","","01-704-1445-E06"
"CDISCPILOT01","DS","01-705-1059","DSSEQ","1","","01-705-1059-E02"
"CDISCPILOT01","DS","01-705-1199","DSSEQ","1","","01-705-1199-E06"
"CDISCPILOT01","DS","01-705-1281","DSSEQ","1","","01-705-1281-E04"
"CDISCPILOT01","DS","01-705-1303","DSSEQ","1","","01-705-1303-E03"
"CDISCPILOT01","DS","01-705-1310","DSSEQ","1","","01-705-1310-E03"
"CDISCPILOT01","DS","01-705-1393","DSSEQ","1","","01-705-1393-E05"
"CDISCPILOT01","DS","01-706-1049","DSSEQ","1","","01-706-1049-E02"
"CDISCPILOT01","DS","01-706-1384","DSSEQ","1","","01-706-1384-E01"
"CDISCPILOT01","DS","01-708-1019","DSSEQ","1","","01-708-1019-E03"
"CDISCPILOT01","DS","01-708-1032","DSSEQ","1","","01-708-1032-E05"
"CDISCPILOT01","DS","01-708-1158","DSSEQ","1","","01-708-1158-E05"
"CDISCPILOT01","DS","01-708-1213","DSSEQ","1","","01-708-1213-E03"
"CDISCPILOT01","DS","01-708-1216","DSSEQ","1","","01-708-1216-E01"
"CDISCPILOT01","DS","01-708-1297","DSSEQ","1","","01-708-1297-E02"
"CDISCPILOT01","DS","01-708-1347","DSSEQ","1","","01-708-1347-E03"
"CDISCPILOT01","DS","01-708-1353","DSSEQ","1","","01-708-1353-E10"
"CDISCPILOT01","DS","01-708-1428","DSSEQ","1","","01-708-1428-E01"
"CDISCPILOT01","DS","01-709-1007","DSSEQ","1","","01-709-1007-E03"
"CDISCPILOT01","DS","01-709-1081","DSSEQ","1","","01-709-1081-E05"
"CDISCPILOT01","DS","01-709-1102","DSSEQ","1","","01-709-1102-E01"
"CDISCPILOT01","DS","01-709-1168","DSSEQ","1","","01-709-1168-E03"
"CDISCPILOT01","DS","01-709-1217","DSSEQ","1","","01-709-1217-E10"
"CDISCPILOT01","DS","01-709-1238","DSSEQ","1","","01-709-1238-E07"
"CDISCPILOT01","DS","01-709-1306","DSSEQ","1","","01-709-1306-E03"
"CDISCPILOT01","DS","01-709-1424","DSSEQ","1","","01-709-1424-E05"
"CDISCPILOT01","DS","01-710-1002","DSSEQ","1","","01-710-1002-E01"
"CDISCPILOT01","DS","01-710-1021","DSSEQ","1","","01-710-1021-E02"
"CDISCPILOT01","DS","01-710-1045","DSSEQ","1","","01-710-1045-E07"
"CDISCPILOT01","DS","01-710-1053","DSSEQ","1","","01-710-1053-E04"
"CDISCPILOT01","DS","01-710-1070","DSSEQ","1","","01-710-1070-E12"
"CDISCPILOT01","DS","01-710-1083","DSSEQ","1","","01-710-1083-E04"
"CDISCPILOT01","DS","01-710-1137","DSSEQ","1","","01-710-1137-E06"
"CDISCPILOT01","DS","01-710-1142","DSSEQ","1","","01-710-1142-E05"
"CDISCPILOT01","DS","01-710-1154","DSSEQ","1","","01-710-1154-E04"
"CDISCPILOT01","DS","01-710-1166","DSSEQ","1","","01-710-1166-E08"
"CDISCPILOT01","DS","01-710-1264","DSSEQ","1","","01-710-1264-E07"
"CDISCPILOT01","DS","01-710-1270","DSSEQ","1","","01-710-1270-E05"
"CDISCPILOT01","DS","01-710-1271","DSSEQ","1","","01-710-1271-E05"
"CDISCPILOT01","DS","01-710-1278","DSSEQ","1","","01-710-1278-E02"
"CDISCPILOT01","DS","01-710-1300","DSSEQ","1","","01-710-1300-E04"
"CDISCPILOT01","DS","01-710-1315","DSSEQ","1","","01-710-1315-E03"
"CDISCPILOT01","DS","01-710-1385","DSSEQ","1","","01-710-1385-E12"
"CDISCPILOT01","DS","01-711-1012","DSSEQ","1","","01-711-1012-E06"
"CDISCPILOT01","DS","01-711-1143","DSSEQ","1","","01-711-1143-E21"
"CDISCPILOT01","DS","01-711-1433","DSSEQ","1","","01-711-1433-E03"
"CDISCPILOT01","DS","01-713-1141","DSSEQ","1","","01-713-1141-E05"
"CDISCPILOT01","DS","01-713-1448","DSSEQ","1","","01-713-1448-E03"
"CDISCPILOT01","DS","01-714-1068","DSSEQ","1","","01-714-1068-E07"
"CDISCPILOT01","DS","01-715-1107","DSSEQ","1","","01-715-1107-E01"
"CDISCPILOT01","DS","01-715-1321","DSSEQ","1","","01-715-1321-E03"
"CDISCPILOT01","DS","01-715-1405","DSSEQ","1","","01-715-1405-E02"
"CDISCPILOT01","DS","01-716-1063","DSSEQ","1","","01-716-1063-E10"
"CDISCPILOT01","DS","01-716-1071","DSSEQ","1","","01-716-1071-E08"
"CDISCPILOT01","DS","01-716-1094","DSSEQ","1","","01-716-1094-E07"
"CDISCPILOT01","DS","01-716-1151","DSSEQ","1","","01-716-1151-E06"
"CDISCPILOT01","DS","01-716-1189","DSSEQ","1","","01-716-1189-E07"
"CDISCPILOT01","DS","01-716-1229","DSSEQ","1","","01-716-1229-E01"
"CDISCPILOT01","DS","01-716-1298","DSSEQ","1","","01-716-1298-E07"
"CDISCPILOT01","DS","01-716-1373","DSSEQ","1","","01-716-1373-E04"
"CDISCPILOT01","DS","01-718-1066","DSSEQ","1","","01-718-1066-E08"
"CDISCPILOT01","DS","01-718-1079","DSSEQ","1","","01-718-1079-E03"
"CDISCPILOT01","DS","01-718-1170","DSSEQ","1","","01-718-1170-E03"
"CDISCPILOT01","DS","01-718-1250","DSSEQ","1","","01-718-1250-E06"
"CDISCPILOT01","DS","01-718-1371","DSSEQ","1","","01-718-1371-E08"
"","","","","","","01-718-1371-E08"
"","","","","","","01-718-1371-E08"
"","","","","","","01-718-1371-E08"
"","","","","","","01-718-1371-E08"
"","","","","","","01-718-1371-E08"
"","","","","","","01-718-1371-E08"
"","","","","","","01-718-1371-E08"
"","","","","","","01-718-1371-E08"
"","","","","","","01-718-1371-E08"
"","","","","","","01-718-1371-E08"
"","","","","","","01-718-1371-E08"
"","","","","","","01-718-1371-E08"
"","","","","","","01-718-1371-E08"
"","","","","","","01-718-1371-E08"
"","","","","","","01-718-1371-E08"
"","","","","","","01-718-1371-E08"
"","","","","","","01-718-1371-E08"
"","","","","","","01-718-1371-E08"
"","","","","","","01-718-1371-E08"
"","","","","","","01-718-1371-E08"
"","","","","","","01-718-1371-E08"
"","","","","","","01-718-1371-E08"
"","","","","","","01-718-1371-E08"
"","","","","","","01-718-1371-E08"
"","","","","","","01-718-1371-E08"
"","","","","","","01-718-1371-E08"
"","","","","","","01-718-1371-E08"
"","","","","","","01-718-1371-E08"
"","","","","","","01-718-1371-E08"
"","","","","","","01-718-1371-E08"
"","","","","","","01-718-1371-E08"
"","","","","","","01-718-1371-E08"
"","","","","","","01-718-1371-E08"
"","","","","","","01-718-1371-E08"
"","","","","","","01-718-1371-E08"
"","","","","","","01-718-1371-E08"
"","","","","","","01-718-1371-E08"
"","","","","","","01-718-1371-E08"
"","","","","","","01-718-1371-E08"
"","","","","","","01-718-1371-E08"
"","","","","","","01-718-1371-E08"
"","","","","","","01-718-1371-E08"
"","","","","","","01-718-1371-E08"
"","","","","","","01-718-1371-E08"
"","","","","","","01-718-1371-E08"
"","","","","","","01-718-1371-E08"
"","","","","","","01-718-1371-E08"
"","","","","","","01-718-1371-E08"
"","","","","","","01-718-1371-E08"
"","","","","","","01-718-1371-E08"
"","","","","","","01-718-1371-E08"
"","","","","","","01-718-1371-E08"
"","","","","","","01-718-1371-E08"
"","","","","","","01-718-1371-E08"
"","","","","","","01-718-1371-E08"
"","","","","","","01-718-1371-E08"
"","","","","","","01-718-1371-E08"
"","","","","","","01-718-1371-E08"
"","","","","","","01-718-1371-E08"
"","","","","","","01-718-1371-E08"
"","","","","","","01-718-1371-E08"
"","","","","","","01-718-1371-E08"
"","","","","","","01-718-1371-E08"
"","","","","","","01-718-1371-E08"
"","","","","","","01-718-1371-E08"
"","","","","","","01-718-1371-E08"
"","","","","","","01-718-1371-E08"
"","","","","","","01-718-1371-E08"
"","","","","","","01-718-1371-E08"
"","","","","","","01-718-1371-E08"
"","","","","","","01-718-1371-E08"
"","","","","","","01-718-1371-E08"
"","","","","","","01-718-1371-E08"
"","","","","","","01-718-1371-E08"
"","","","","","","01-718-1371-E08"
"","","","","","","01-718-1371-E08"
"","","","","","","01-718-1371-E08"
"","","","","","","01-718-1371-E08"
"","","","","","","01-718-1371-E08"
"","","","","","","01-718-1371-E08"
"","","","","","","01-718-1371-E08"
"","","","","","","01-718-1371-E08"
"","","","","","","01-718-1371-E08"
"","","","","","","01-718-1371-E08"
"","","","","","","01-718-1371-E08"
"","","","","","","01-718-1371-E08"
"","","","","","","01-718-1371-E08"
"","","","","","","01-718-1371-E08"
"","","","","","","01-718-1371-E08"
